8 Acc LUA^ accX,9 Acc LUA^ accY,10 Acc LUA^ accZ
95.0,975.0,152.0
124.0,968.0,123.0
127.0,1001.0,113.0
110.0,1007.0,106.0
98.0,1001.0,92.0
72.0,994.0,136.0
41.0,994.0,123.0
55.0,975.0,123.0
65.0,1009.0,123.0
62.0,1092.0,87.0
136.0,1059.0,64.0
103.0,1061.0,60.0
50.0,1063.0,61.0
19.0,1035.0,81.0
32.0,1007.0,90.0
56.0,1025.0,70.0
49.0,999.0,72.0
55.0,986.0,102.0
31.0,990.0,83.0
35.0,1009.0,55.0
51.0,981.0,68.0
13.0,993.0,73.0
10.0,997.0,96.0
20.0,983.0,96.0
22.0,987.0,103.0
-5.0,986.0,116.0
19.0,985.0,118.0
64.0,1019.0,66.0
85.0,1053.0,50.0
57.0,1063.0,71.0
7.0,1062.0,72.0
-30.0,1041.0,105.0
0.0,1017.0,79.0
25.0,967.0,43.0
-47.0,982.0,65.0
-88.0,1019.0,83.0
-72.0,1004.0,131.0
-74.0,1079.0,175.0
-22.0,1071.0,208.0
4.0,988.0,243.0
-52.0,940.0,181.0
-61.0,967.0,161.0
3.0,987.0,153.0
-5.0,995.0,188.0
-20.0,980.0,193.0
10.0,959.0,204.0
-1.0,938.0,184.0
-10.0,931.0,219.0
-27.0,953.0,249.0
-74.0,973.0,280.0
-71.0,1025.0,290.0
-68.0,1055.0,328.0
-56.0,1055.0,312.0
-43.0,1035.0,322.0
-127.0,1006.0,359.0
-109.0,1004.0,332.0
-100.0,1018.0,285.0
-139.0,1044.0,265.0
-61.0,1060.0,228.0
-91.0,1032.0,198.0
-77.0,1090.0,245.0
-57.0,1073.0,245.0
-119.0,1125.0,441.0
-286.0,992.0,459.0
-249.0,915.0,590.0
-297.0,888.0,513.0
-197.0,1005.0,533.0
-24.0,1002.0,596.0
145.0,881.0,641.0
271.0,777.0,697.0
143.0,693.0,730.0
59.0,694.0,759.0
-73.0,710.0,614.0
-353.0,628.0,621.0
-495.0,585.0,542.0
-627.0,540.0,421.0
-699.0,442.0,361.0
-799.0,361.0,387.0
-828.0,337.0,527.0
-861.0,396.0,482.0
-900.0,348.0,555.0
-909.0,360.0,527.0
-905.0,344.0,623.0
-869.0,393.0,580.0
-813.0,382.0,534.0
-769.0,402.0,567.0
-732.0,398.0,557.0
-726.0,386.0,547.0
-770.0,381.0,511.0
-822.0,344.0,534.0
-908.0,331.0,500.0
-978.0,261.0,519.0
-1114.0,299.0,452.0
,,
,,
,,
,,
,,
,,
,,
,,
,,
,,
,,
,,
,,
,,
,,
,,
,,
,,
,,
,,
,,
-392.0,404.0,873.0
-444.0,379.0,870.0
-392.0,368.0,909.0
-387.0,380.0,922.0
-377.0,407.0,937.0
-385.0,332.0,868.0
-404.0,298.0,849.0
-412.0,289.0,766.0
-452.0,247.0,798.0
-431.0,241.0,778.0
-485.0,243.0,720.0
-428.0,313.0,804.0
-602.0,267.0,741.0
-495.0,281.0,790.0
-320.0,281.0,911.0
-361.0,381.0,1013.0
-441.0,392.0,1068.0
-416.0,502.0,1020.0
-482.0,527.0,933.0
-600.0,456.0,716.0
-610.0,522.0,590.0
-572.0,552.0,558.0
-710.0,472.0,466.0
-691.0,480.0,438.0
-722.0,443.0,456.0
-718.0,457.0,524.0
-721.0,520.0,592.0
-751.0,503.0,762.0
-769.0,501.0,711.0
-751.0,439.0,757.0
-748.0,437.0,680.0
-768.0,502.0,470.0
-869.0,439.0,323.0
-902.0,343.0,344.0
-923.0,362.0,408.0
-840.0,385.0,526.0
-722.0,492.0,590.0
-639.0,535.0,610.0
-617.0,510.0,545.0
-684.0,483.0,493.0
-731.0,383.0,436.0
-869.0,407.0,359.0
-902.0,396.0,348.0
-951.0,502.0,286.0
-932.0,529.0,254.0
,,
,,
,,
,,
,,
,,
,,
,,
,,
,,
,,
,,
,,
,,
,,
,,
,,
,,
,,
,,
-509.0,297.0,816.0
-514.0,296.0,834.0
-517.0,310.0,848.0
-517.0,309.0,833.0
-485.0,292.0,815.0
-441.0,284.0,829.0
-331.0,330.0,854.0
-402.0,366.0,821.0
-414.0,357.0,846.0
-381.0,398.0,866.0
-380.0,370.0,875.0
-409.0,382.0,850.0
-390.0,422.0,774.0
-469.0,472.0,748.0
-557.0,478.0,679.0
-555.0,488.0,687.0
-611.0,548.0,677.0
-648.0,584.0,657.0
-686.0,601.0,610.0
-739.0,616.0,518.0
-742.0,572.0,455.0
-716.0,583.0,521.0
-722.0,590.0,466.0
-727.0,567.0,450.0
-634.0,572.0,437.0
-688.0,569.0,493.0
-639.0,552.0,579.0
-555.0,525.0,641.0
-682.0,601.0,589.0
-771.0,582.0,475.0
-763.0,538.0,436.0
-815.0,502.0,441.0
-836.0,508.0,465.0
-812.0,484.0,469.0
-749.0,564.0,517.0
-741.0,583.0,496.0
-735.0,588.0,434.0
-689.0,610.0,449.0
-728.0,613.0,433.0
-779.0,544.0,415.0
-802.0,598.0,490.0
-763.0,609.0,579.0
-761.0,635.0,520.0
-702.0,616.0,518.0
-673.0,619.0,474.0
-671.0,638.0,431.0
,,
,,
,,
,,
,,
,,
,,
,,
,,
,,
,,
,,
,,
,,
,,
,,
,,
,,
,,
-431.0,376.0,824.0
-433.0,358.0,872.0
-453.0,355.0,857.0
-434.0,358.0,845.0
-460.0,340.0,823.0
-454.0,356.0,831.0
-439.0,361.0,836.0
-406.0,368.0,833.0
-355.0,387.0,881.0
-360.0,417.0,906.0
-389.0,407.0,864.0
-337.0,403.0,845.0
-281.0,429.0,876.0
-156.0,519.0,926.0
-209.0,580.0,861.0
-364.0,485.0,780.0
-427.0,587.0,717.0
-566.0,517.0,631.0
-574.0,503.0,595.0
-686.0,538.0,555.0
-770.0,476.0,536.0
-747.0,438.0,631.0
-774.0,511.0,547.0
-796.0,577.0,446.0
-784.0,555.0,391.0
-733.0,504.0,387.0
-732.0,504.0,376.0
-734.0,554.0,408.0
-734.0,527.0,550.0
-694.0,493.0,658.0
-734.0,549.0,668.0
-760.0,575.0,562.0
-801.0,603.0,462.0
-813.0,550.0,392.0
-837.0,556.0,372.0
-820.0,528.0,402.0
-781.0,504.0,455.0
-709.0,559.0,460.0
-677.0,608.0,509.0
-643.0,569.0,529.0
-650.0,548.0,496.0
-730.0,570.0,389.0
-763.0,532.0,366.0
-831.0,528.0,395.0
-842.0,537.0,452.0
-829.0,615.0,376.0
-886.0,566.0,398.0
,,
,,
,,
,,
,,
,,
,,
,,
,,
,,
,,
,,
,,
,,
,,
,,
,,
,,
,,
-481.0,343.0,747.0
-454.0,335.0,854.0
-485.0,330.0,848.0
-518.0,334.0,801.0
-491.0,323.0,820.0
-447.0,324.0,832.0
-456.0,313.0,870.0
-456.0,350.0,896.0
-445.0,361.0,886.0
-378.0,350.0,868.0
-395.0,366.0,828.0
-434.0,346.0,850.0
-393.0,343.0,827.0
-376.0,413.0,855.0
-401.0,361.0,834.0
-407.0,359.0,853.0
-375.0,459.0,805.0
-345.0,436.0,858.0
-400.0,422.0,765.0
-406.0,526.0,789.0
-509.0,531.0,786.0
-523.0,533.0,706.0
-613.0,555.0,659.0
-653.0,571.0,562.0
-806.0,484.0,572.0
-649.0,539.0,595.0
-758.0,527.0,498.0
-671.0,496.0,511.0
-559.0,554.0,483.0
-700.0,520.0,449.0
-784.0,483.0,496.0
-847.0,456.0,543.0
-836.0,486.0,575.0
-857.0,467.0,559.0
-856.0,465.0,542.0
-726.0,583.0,574.0
-682.0,569.0,587.0
-767.0,481.0,563.0
-681.0,546.0,531.0
-675.0,533.0,539.0
-656.0,521.0,509.0
-655.0,517.0,520.0
-649.0,555.0,505.0
-699.0,481.0,498.0
-770.0,479.0,430.0
-849.0,470.0,394.0
-888.0,508.0,406.0
-951.0,573.0,334.0
,,
,,
,,
,,
,,
,,
,,
,,
,,
,,
,,
,,
,,
,,
,,
,,
,,
,,
,,
,,
-488.0,387.0,811.0
-508.0,399.0,852.0
-559.0,373.0,788.0
-498.0,369.0,802.0
-466.0,399.0,814.0
-485.0,399.0,817.0
-432.0,424.0,854.0
-401.0,440.0,802.0
-408.0,405.0,818.0
-327.0,460.0,796.0
-404.0,480.0,714.0
-385.0,489.0,687.0
-415.0,553.0,662.0
-450.0,578.0,592.0
-471.0,613.0,570.0
-508.0,661.0,476.0
-549.0,735.0,410.0
-663.0,724.0,465.0
-676.0,715.0,554.0
-720.0,674.0,569.0
-722.0,643.0,683.0
-698.0,570.0,591.0
-814.0,741.0,459.0
-665.0,703.0,540.0
-171.0,808.0,264.0
78.0,1000.0,119.0
303.0,1013.0,305.0
210.0,1049.0,322.0
2.0,1152.0,339.0
-252.0,998.0,379.0
-426.0,1014.0,365.0
-185.0,980.0,400.0
9.0,983.0,387.0
-174.0,1053.0,259.0
60.0,1043.0,277.0
156.0,1045.0,278.0
17.0,1006.0,204.0
-47.0,1006.0,192.0
-8.0,996.0,158.0
-20.0,1009.0,156.0
24.0,1015.0,129.0
15.0,1014.0,160.0
-14.0,998.0,194.0
-29.0,977.0,162.0
-36.0,966.0,172.0
-59.0,998.0,194.0
-72.0,999.0,180.0
-42.0,1002.0,166.0
-67.0,1005.0,167.0
-42.0,1015.0,170.0
-37.0,999.0,173.0
-38.0,997.0,192.0
-48.0,997.0,193.0
-49.0,1006.0,183.0
-53.0,994.0,171.0
-16.0,990.0,164.0
-50.0,1006.0,158.0
-46.0,992.0,140.0
-29.0,1003.0,162.0
-22.0,996.0,153.0
-31.0,988.0,144.0
-27.0,1004.0,166.0
-34.0,1004.0,171.0
-54.0,1007.0,150.0
-32.0,998.0,171.0
-20.0,996.0,156.0
-27.0,1004.0,170.0
-29.0,1007.0,174.0
-29.0,987.0,153.0
-37.0,1017.0,143.0
-6.0,1002.0,153.0
-6.0,999.0,141.0
-17.0,1005.0,160.0
-30.0,1005.0,155.0
-41.0,987.0,162.0
-15.0,1000.0,148.0
-17.0,1010.0,161.0
-11.0,987.0,159.0
-32.0,990.0,174.0
-47.0,1017.0,163.0
-41.0,1014.0,166.0
-37.0,994.0,150.0
-31.0,1015.0,148.0
-11.0,989.0,173.0
-19.0,987.0,153.0
-27.0,997.0,163.0
-10.0,1008.0,161.0
-7.0,1014.0,136.0
-4.0,989.0,140.0
-19.0,993.0,165.0
-10.0,987.0,165.0
-23.0,985.0,154.0
-12.0,989.0,165.0
-10.0,982.0,137.0
-12.0,1008.0,163.0
-36.0,996.0,149.0
-19.0,1004.0,161.0
9.0,1005.0,120.0
1.0,1015.0,137.0
0.0,1024.0,115.0
0.0,1035.0,122.0
13.0,1026.0,131.0
35.0,1032.0,132.0
10.0,1017.0,104.0
20.0,1019.0,81.0
24.0,996.0,98.0
36.0,1021.0,97.0
37.0,1008.0,74.0
68.0,1005.0,97.0
57.0,1005.0,87.0
34.0,1005.0,94.0
28.0,1011.0,96.0
40.0,1017.0,99.0
75.0,1007.0,94.0
43.0,1006.0,109.0
46.0,1006.0,103.0
57.0,1016.0,92.0
68.0,1016.0,113.0
88.0,1002.0,108.0
95.0,988.0,95.0
82.0,993.0,112.0
76.0,975.0,118.0
81.0,993.0,129.0
126.0,1001.0,101.0
118.0,1026.0,81.0
138.0,1006.0,73.0
134.0,996.0,91.0
92.0,988.0,81.0
57.0,987.0,58.0
59.0,978.0,74.0
78.0,995.0,25.0
57.0,1005.0,20.0
86.0,1025.0,10.0
105.0,997.0,41.0
116.0,1016.0,5.0
135.0,1005.0,17.0
128.0,1032.0,10.0
110.0,1026.0,12.0
105.0,1014.0,23.0
125.0,993.0,19.0
130.0,996.0,20.0
116.0,1004.0,27.0
87.0,1016.0,26.0
102.0,998.0,5.0
95.0,1013.0,17.0
125.0,998.0,39.0
143.0,1014.0,15.0
152.0,988.0,0.0
124.0,1025.0,0.0
106.0,1056.0,23.0
115.0,1079.0,51.0
125.0,1038.0,39.0
105.0,1018.0,30.0
89.0,994.0,50.0
126.0,1007.0,35.0
129.0,990.0,16.0
117.0,1006.0,53.0
94.0,996.0,48.0
105.0,1006.0,50.0
95.0,988.0,21.0
110.0,1009.0,36.0
113.0,994.0,49.0
132.0,1008.0,61.0
115.0,1044.0,33.0
143.0,997.0,41.0
122.0,999.0,41.0
116.0,1013.0,41.0
109.0,997.0,41.0
99.0,1005.0,39.0
131.0,1013.0,32.0
113.0,1052.0,42.0
132.0,1025.0,19.0
151.0,998.0,10.0
144.0,996.0,8.0
156.0,997.0,24.0
144.0,1000.0,22.0
143.0,1016.0,2.0
149.0,1013.0,47.0
162.0,1026.0,34.0
161.0,989.0,31.0
181.0,1006.0,20.0
141.0,985.0,52.0
146.0,965.0,36.0
147.0,951.0,39.0
136.0,969.0,52.0
137.0,990.0,-18.0
108.0,1014.0,-8.0
123.0,1018.0,-11.0
139.0,1078.0,-37.0
149.0,1095.0,-25.0
190.0,1073.0,-39.0
188.0,1061.0,-3.0
190.0,1040.0,-17.0
225.0,982.0,-10.0
237.0,970.0,-21.0
213.0,941.0,19.0
152.0,968.0,-20.0
143.0,998.0,1.0
180.0,1018.0,2.0
239.0,1049.0,5.0
227.0,1025.0,-14.0
222.0,960.0,40.0
196.0,987.0,5.0
193.0,984.0,8.0
158.0,1018.0,30.0
188.0,1030.0,56.0
262.0,989.0,79.0
248.0,975.0,50.0
177.0,1025.0,74.0
236.0,1003.0,130.0
256.0,917.0,227.0
309.0,910.0,63.0
333.0,883.0,51.0
314.0,886.0,83.0
322.0,919.0,134.0
298.0,906.0,105.0
286.0,946.0,91.0
276.0,949.0,97.0
238.0,963.0,90.0
266.0,973.0,52.0
281.0,993.0,49.0
248.0,1000.0,67.0
230.0,1005.0,80.0
229.0,964.0,60.0
203.0,924.0,81.0
176.0,927.0,104.0
224.0,878.0,114.0
177.0,855.0,136.0
189.0,1155.0,11.0
297.0,1199.0,203.0
392.0,1082.0,211.0
460.0,992.0,67.0
261.0,944.0,62.0
337.0,943.0,20.0
337.0,986.0,80.0
318.0,999.0,76.0
288.0,960.0,87.0
264.0,944.0,62.0
214.0,970.0,57.0
206.0,1003.0,91.0
250.0,1001.0,77.0
247.0,973.0,63.0
187.0,974.0,52.0
171.0,997.0,60.0
152.0,968.0,71.0
162.0,970.0,71.0
141.0,1007.0,46.0
160.0,1003.0,21.0
178.0,996.0,31.0
175.0,998.0,14.0
172.0,1009.0,10.0
153.0,1020.0,12.0
183.0,1025.0,24.0
196.0,1017.0,14.0
192.0,997.0,34.0
173.0,1036.0,4.0
205.0,1019.0,24.0
208.0,994.0,9.0
225.0,991.0,-2.0
228.0,968.0,0.0
238.0,950.0,0.0
208.0,923.0,11.0
233.0,916.0,8.0
201.0,802.0,56.0
169.0,1100.0,-13.0
292.0,1247.0,47.0
318.0,1070.0,264.0
439.0,972.0,40.0
267.0,919.0,32.0
228.0,940.0,-23.0
335.0,946.0,23.0
284.0,1016.0,34.0
276.0,987.0,53.0
241.0,961.0,40.0
244.0,957.0,44.0
257.0,984.0,10.0
220.0,969.0,70.0
209.0,952.0,40.0
188.0,1019.0,42.0
209.0,1011.0,42.0
233.0,1007.0,49.0
205.0,998.0,27.0
204.0,971.0,34.0
169.0,988.0,26.0
179.0,994.0,18.0
177.0,1008.0,26.0
191.0,1010.0,37.0
174.0,1006.0,40.0
180.0,990.0,4.0
158.0,1000.0,30.0
173.0,1008.0,61.0
201.0,1005.0,43.0
200.0,1016.0,20.0
218.0,986.0,10.0
212.0,979.0,10.0
224.0,971.0,37.0
199.0,951.0,17.0
200.0,966.0,31.0
254.0,887.0,38.0
204.0,769.0,109.0
152.0,1113.0,-32.0
291.0,1301.0,42.0
361.0,1043.0,332.0
472.0,995.0,70.0
273.0,946.0,37.0
271.0,901.0,25.0
349.0,955.0,28.0
262.0,998.0,58.0
257.0,959.0,101.0
236.0,958.0,59.0
208.0,929.0,42.0
200.0,953.0,36.0
213.0,958.0,23.0
197.0,994.0,60.0
152.0,1026.0,35.0
157.0,1012.0,33.0
159.0,1018.0,67.0
148.0,1005.0,32.0
161.0,992.0,47.0
159.0,1011.0,31.0
178.0,1016.0,17.0
173.0,1003.0,22.0
179.0,983.0,11.0
172.0,1049.0,9.0
189.0,1036.0,31.0
188.0,1006.0,20.0
151.0,1018.0,21.0
152.0,1022.0,32.0
152.0,1017.0,28.0
168.0,992.0,20.0
182.0,987.0,19.0
161.0,986.0,27.0
190.0,962.0,42.0
225.0,772.0,34.0
123.0,995.0,24.0
242.0,1470.0,-78.0
336.0,1085.0,355.0
400.0,902.0,181.0
360.0,915.0,-50.0
187.0,909.0,-15.0
309.0,921.0,-52.0
367.0,981.0,43.0
263.0,1013.0,70.0
251.0,959.0,73.0
190.0,944.0,49.0
182.0,973.0,23.0
183.0,998.0,28.0
209.0,1029.0,67.0
196.0,1001.0,73.0
170.0,994.0,39.0
158.0,940.0,43.0
171.0,960.0,-15.0
167.0,1020.0,-9.0
195.0,1032.0,40.0
185.0,1036.0,55.0
180.0,1026.0,31.0
181.0,1016.0,60.0
171.0,1016.0,61.0
162.0,1014.0,58.0
172.0,1008.0,30.0
170.0,1027.0,42.0
176.0,1019.0,26.0
210.0,1000.0,39.0
180.0,995.0,49.0
185.0,978.0,16.0
176.0,977.0,40.0
217.0,944.0,29.0
213.0,946.0,71.0
238.0,800.0,52.0
114.0,899.0,112.0
260.0,1449.0,-134.0
359.0,1172.0,311.0
472.0,906.0,244.0
331.0,787.0,40.0
134.0,841.0,-27.0
356.0,883.0,-61.0
399.0,999.0,-52.0
337.0,1018.0,31.0
278.0,986.0,46.0
158.0,1001.0,23.0
159.0,1000.0,28.0
135.0,975.0,50.0
151.0,995.0,49.0
163.0,997.0,59.0
163.0,983.0,66.0
134.0,975.0,77.0
105.0,1000.0,34.0
122.0,1024.0,49.0
142.0,1006.0,32.0
152.0,1026.0,51.0
152.0,1032.0,38.0
140.0,1005.0,20.0
123.0,1020.0,22.0
125.0,1022.0,33.0
124.0,1031.0,28.0
122.0,1025.0,37.0
108.0,1022.0,39.0
102.0,1036.0,49.0
88.0,1038.0,42.0
118.0,1040.0,60.0
116.0,1026.0,74.0
123.0,1012.0,64.0
107.0,995.0,44.0
129.0,1006.0,58.0
125.0,1005.0,62.0
125.0,1024.0,41.0
141.0,987.0,49.0
126.0,1007.0,32.0
145.0,1009.0,40.0
142.0,1019.0,47.0
140.0,978.0,39.0
136.0,1012.0,29.0
167.0,1000.0,51.0
185.0,988.0,43.0
168.0,1008.0,49.0
162.0,1019.0,37.0
154.0,1005.0,49.0
159.0,1016.0,52.0
163.0,999.0,42.0
169.0,1014.0,41.0
181.0,1007.0,41.0
171.0,1006.0,51.0
171.0,996.0,52.0
160.0,998.0,61.0
152.0,993.0,79.0
137.0,989.0,80.0
141.0,996.0,36.0
166.0,1001.0,54.0
157.0,1000.0,31.0
148.0,998.0,38.0
166.0,986.0,44.0
158.0,1002.0,67.0
162.0,990.0,65.0
175.0,1008.0,60.0
154.0,1010.0,61.0
160.0,988.0,61.0
171.0,978.0,51.0
152.0,997.0,51.0
143.0,988.0,52.0
142.0,1006.0,48.0
145.0,997.0,45.0
152.0,1022.0,60.0
156.0,1018.0,51.0
179.0,998.0,42.0
171.0,979.0,38.0
139.0,985.0,46.0
167.0,1004.0,24.0
179.0,1004.0,53.0
162.0,1002.0,53.0
162.0,979.0,19.0
148.0,985.0,33.0
140.0,963.0,-16.0
198.0,948.0,-11.0
170.0,968.0,-32.0
153.0,982.0,-40.0
162.0,1041.0,-28.0
161.0,1052.0,-23.0
164.0,1053.0,-29.0
169.0,1018.0,-43.0
143.0,997.0,-54.0
176.0,1005.0,-57.0
203.0,989.0,-108.0
203.0,982.0,-98.0
206.0,977.0,-141.0
201.0,1011.0,-113.0
228.0,995.0,-105.0
204.0,983.0,-130.0
207.0,997.0,-116.0
219.0,987.0,-72.0
209.0,997.0,-113.0
210.0,997.0,-119.0
219.0,995.0,-93.0
220.0,988.0,-117.0
198.0,995.0,-116.0
188.0,987.0,-100.0
210.0,999.0,-102.0
221.0,995.0,-106.0
233.0,997.0,-109.0
214.0,991.0,-106.0
222.0,979.0,-145.0
211.0,977.0,-110.0
207.0,976.0,-110.0
218.0,993.0,-96.0
210.0,998.0,-92.0
209.0,996.0,-72.0
219.0,1016.0,-81.0
226.0,986.0,-80.0
210.0,988.0,-71.0
216.0,1000.0,-70.0
201.0,1000.0,-70.0
225.0,988.0,-37.0
210.0,991.0,-46.0
193.0,981.0,-45.0
172.0,1002.0,-19.0
178.0,990.0,-35.0
179.0,1018.0,-29.0
189.0,1009.0,-20.0
175.0,983.0,9.0
184.0,1005.0,-6.0
201.0,988.0,-29.0
182.0,1005.0,-32.0
190.0,1016.0,-10.0
188.0,995.0,12.0
172.0,1002.0,4.0
166.0,1022.0,0.0
158.0,1006.0,23.0
184.0,1029.0,-5.0
186.0,1000.0,37.0
200.0,989.0,12.0
182.0,999.0,29.0
186.0,994.0,26.0
193.0,1004.0,10.0
181.0,999.0,25.0
196.0,989.0,38.0
193.0,984.0,44.0
173.0,989.0,37.0
170.0,968.0,91.0
181.0,1006.0,51.0
142.0,1008.0,72.0
144.0,1009.0,85.0
156.0,972.0,109.0
172.0,1021.0,62.0
170.0,1001.0,62.0
152.0,1021.0,46.0
152.0,1008.0,61.0
182.0,1005.0,71.0
202.0,1003.0,45.0
206.0,984.0,49.0
182.0,1008.0,43.0
150.0,997.0,54.0
184.0,967.0,71.0
190.0,977.0,54.0
217.0,986.0,21.0
200.0,997.0,20.0
203.0,987.0,9.0
228.0,997.0,11.0
227.0,997.0,8.0
213.0,994.0,-1.0
199.0,987.0,19.0
194.0,1000.0,28.0
185.0,1008.0,22.0
228.0,998.0,38.0
208.0,1003.0,42.0
208.0,993.0,35.0
189.0,991.0,34.0
185.0,998.0,58.0
191.0,996.0,54.0
190.0,988.0,41.0
181.0,996.0,69.0
181.0,1006.0,92.0
183.0,977.0,61.0
199.0,991.0,72.0
192.0,1003.0,72.0
197.0,984.0,98.0
194.0,988.0,82.0
206.0,983.0,73.0
184.0,978.0,59.0
200.0,998.0,61.0
217.0,1001.0,63.0
212.0,995.0,46.0
209.0,996.0,59.0
195.0,1004.0,56.0
187.0,992.0,47.0
207.0,984.0,80.0
209.0,1015.0,52.0
209.0,987.0,71.0
219.0,990.0,50.0
219.0,1015.0,52.0
219.0,993.0,64.0
220.0,985.0,51.0
229.0,974.0,39.0
208.0,982.0,57.0
205.0,985.0,45.0
203.0,995.0,62.0
214.0,1004.0,45.0
237.0,982.0,62.0
229.0,981.0,47.0
198.0,989.0,38.0
226.0,977.0,50.0
210.0,986.0,50.0
228.0,986.0,70.0
181.0,1016.0,71.0
210.0,985.0,82.0
197.0,991.0,76.0
204.0,1003.0,54.0
206.0,982.0,85.0
217.0,980.0,77.0
224.0,1008.0,67.0
202.0,1008.0,59.0
200.0,994.0,41.0
201.0,996.0,56.0
197.0,1003.0,47.0
209.0,1000.0,49.0
205.0,990.0,28.0
235.0,977.0,18.0
222.0,1002.0,20.0
210.0,998.0,49.0
190.0,987.0,61.0
227.0,997.0,61.0
184.0,1008.0,63.0
160.0,1013.0,68.0
170.0,993.0,65.0
206.0,1001.0,63.0
212.0,1004.0,42.0
216.0,1002.0,67.0
205.0,968.0,60.0
187.0,996.0,84.0
191.0,1004.0,69.0
198.0,976.0,90.0
180.0,1012.0,75.0
189.0,1001.0,88.0
190.0,979.0,75.0
199.0,977.0,61.0
200.0,987.0,51.0
209.0,1008.0,62.0
197.0,1010.0,70.0
195.0,980.0,45.0
224.0,1006.0,49.0
247.0,979.0,36.0
264.0,996.0,37.0
213.0,1005.0,68.0
186.0,1005.0,59.0
201.0,1005.0,93.0
196.0,1007.0,96.0
140.0,978.0,89.0
215.0,933.0,22.0
232.0,988.0,-9.0
315.0,974.0,22.0
289.0,966.0,71.0
219.0,1006.0,81.0
74.0,1025.0,151.0
114.0,988.0,86.0
188.0,952.0,38.0
291.0,995.0,-3.0
252.0,1005.0,67.0
212.0,1003.0,88.0
166.0,990.0,77.0
169.0,969.0,65.0
193.0,1007.0,31.0
195.0,1012.0,52.0
190.0,990.0,54.0
178.0,1001.0,58.0
183.0,980.0,75.0
180.0,985.0,87.0
182.0,996.0,94.0
162.0,997.0,81.0
162.0,996.0,122.0
174.0,975.0,111.0
203.0,972.0,110.0
209.0,1000.0,88.0
191.0,1007.0,77.0
204.0,998.0,74.0
202.0,989.0,78.0
167.0,1012.0,73.0
188.0,994.0,85.0
169.0,1007.0,77.0
185.0,987.0,86.0
185.0,1010.0,69.0
184.0,994.0,83.0
225.0,985.0,37.0
211.0,987.0,30.0
219.0,997.0,20.0
217.0,1006.0,43.0
191.0,994.0,47.0
197.0,992.0,51.0
168.0,1012.0,106.0
188.0,980.0,65.0
168.0,994.0,73.0
172.0,1009.0,73.0
175.0,990.0,91.0
178.0,983.0,108.0
164.0,1002.0,84.0
154.0,990.0,115.0
170.0,1015.0,112.0
185.0,992.0,80.0
192.0,994.0,101.0
189.0,989.0,82.0
209.0,978.0,81.0
200.0,996.0,73.0
212.0,967.0,101.0
213.0,978.0,80.0
190.0,963.0,95.0
203.0,958.0,88.0
214.0,960.0,78.0
211.0,972.0,88.0
207.0,982.0,82.0
243.0,987.0,70.0
208.0,982.0,65.0
178.0,977.0,52.0
179.0,1017.0,13.0
138.0,1024.0,35.0
126.0,1041.0,41.0
97.0,1036.0,77.0
95.0,1035.0,72.0
106.0,1024.0,31.0
123.0,1016.0,29.0
114.0,1031.0,11.0
112.0,1065.0,52.0
121.0,1026.0,55.0
126.0,1010.0,56.0
99.0,1023.0,31.0
116.0,1010.0,19.0
150.0,997.0,44.0
124.0,1008.0,26.0
103.0,1020.0,66.0
132.0,1025.0,32.0
138.0,965.0,58.0
147.0,1005.0,18.0
106.0,1019.0,27.0
151.0,987.0,51.0
171.0,1005.0,31.0
194.0,999.0,18.0
207.0,1027.0,27.0
199.0,1006.0,63.0
185.0,986.0,46.0
201.0,982.0,60.0
179.0,960.0,92.0
181.0,963.0,80.0
215.0,964.0,73.0
200.0,947.0,64.0
168.0,925.0,104.0
214.0,940.0,84.0
224.0,1016.0,82.0
204.0,1033.0,104.0
163.0,1037.0,91.0
190.0,997.0,131.0
151.0,1076.0,109.0
176.0,1087.0,62.0
197.0,1034.0,81.0
157.0,978.0,86.0
88.0,968.0,100.0
83.0,969.0,75.0
95.0,1001.0,62.0
97.0,1019.0,37.0
94.0,1030.0,66.0
127.0,999.0,31.0
95.0,990.0,37.0
128.0,1003.0,57.0
100.0,1022.0,40.0
151.0,1009.0,43.0
155.0,1005.0,21.0
143.0,1006.0,41.0
132.0,997.0,30.0
111.0,986.0,21.0
100.0,991.0,33.0
133.0,1020.0,27.0
92.0,1020.0,45.0
91.0,996.0,65.0
92.0,987.0,39.0
111.0,1003.0,58.0
142.0,1003.0,66.0
102.0,1016.0,71.0
81.0,1027.0,89.0
95.0,1022.0,109.0
94.0,1027.0,81.0
96.0,1000.0,92.0
86.0,1004.0,72.0
113.0,997.0,71.0
123.0,1008.0,62.0
114.0,1020.0,69.0
111.0,979.0,54.0
80.0,1010.0,99.0
78.0,1002.0,83.0
71.0,1007.0,88.0
88.0,1007.0,89.0
82.0,1019.0,102.0
76.0,1005.0,87.0
116.0,992.0,92.0
127.0,1015.0,63.0
114.0,1028.0,62.0
129.0,1008.0,66.0
134.0,1005.0,67.0
126.0,998.0,91.0
95.0,987.0,81.0
105.0,1007.0,72.0
106.0,1014.0,80.0
127.0,1008.0,74.0
118.0,1025.0,107.0
105.0,996.0,94.0
102.0,1007.0,82.0
90.0,1006.0,99.0
64.0,1009.0,94.0
90.0,1040.0,75.0
100.0,1003.0,100.0
107.0,1019.0,117.0
98.0,989.0,102.0
80.0,1009.0,104.0
119.0,1016.0,84.0
141.0,1034.0,99.0
143.0,1007.0,103.0
114.0,1036.0,82.0
114.0,1040.0,111.0
117.0,1002.0,106.0
148.0,982.0,117.0
148.0,983.0,92.0
108.0,995.0,101.0
110.0,984.0,112.0
153.0,989.0,85.0
134.0,1004.0,79.0
162.0,996.0,88.0
147.0,1011.0,32.0
190.0,1002.0,37.0
187.0,996.0,58.0
181.0,981.0,68.0
147.0,985.0,91.0
142.0,997.0,62.0
142.0,1007.0,72.0
145.0,1014.0,82.0
149.0,1008.0,94.0
147.0,1011.0,103.0
142.0,998.0,81.0
112.0,1002.0,85.0
126.0,1003.0,111.0
131.0,1010.0,102.0
146.0,992.0,89.0
142.0,1002.0,93.0
137.0,1008.0,96.0
137.0,990.0,106.0
153.0,993.0,99.0
150.0,997.0,89.0
154.0,1013.0,84.0
124.0,1007.0,80.0
142.0,978.0,111.0
125.0,997.0,84.0
129.0,996.0,123.0
109.0,982.0,97.0
149.0,1000.0,104.0
141.0,1018.0,64.0
134.0,1015.0,79.0
110.0,1026.0,101.0
146.0,996.0,83.0
176.0,995.0,49.0
167.0,1011.0,53.0
131.0,1007.0,61.0
157.0,1020.0,84.0
162.0,1010.0,94.0
154.0,997.0,108.0
97.0,987.0,132.0
126.0,987.0,112.0
161.0,987.0,99.0
178.0,998.0,55.0
193.0,993.0,59.0
160.0,990.0,80.0
169.0,1005.0,92.0
131.0,979.0,109.0
141.0,1020.0,87.0
140.0,991.0,99.0
156.0,982.0,100.0
158.0,1020.0,74.0
150.0,1012.0,91.0
142.0,1018.0,106.0
106.0,1006.0,107.0
123.0,1015.0,132.0
114.0,1016.0,112.0
133.0,996.0,132.0
145.0,988.0,121.0
172.0,1009.0,107.0
158.0,1012.0,67.0
138.0,993.0,93.0
156.0,997.0,114.0
157.0,959.0,127.0
118.0,989.0,106.0
149.0,1025.0,91.0
150.0,983.0,89.0
146.0,976.0,108.0
110.0,995.0,92.0
153.0,1018.0,78.0
155.0,998.0,75.0
152.0,1013.0,69.0
134.0,1025.0,92.0
113.0,1016.0,93.0
88.0,1005.0,111.0
127.0,1006.0,117.0
135.0,1005.0,125.0
138.0,990.0,111.0
107.0,979.0,157.0
104.0,1026.0,100.0
110.0,1041.0,102.0
109.0,1030.0,111.0
106.0,1010.0,91.0
96.0,1007.0,107.0
93.0,1001.0,105.0
64.0,1020.0,109.0
137.0,966.0,99.0
172.0,991.0,62.0
153.0,1024.0,80.0
124.0,1024.0,102.0
133.0,977.0,111.0
106.0,999.0,102.0
76.0,997.0,86.0
92.0,1023.0,93.0
128.0,1016.0,117.0
158.0,1007.0,88.0
165.0,1015.0,82.0
149.0,992.0,57.0
154.0,991.0,93.0
148.0,997.0,104.0
120.0,1001.0,94.0
141.0,1008.0,85.0
143.0,996.0,63.0
144.0,1005.0,61.0
133.0,997.0,61.0
143.0,1006.0,71.0
133.0,997.0,72.0
145.0,1007.0,67.0
141.0,1005.0,55.0
147.0,1006.0,85.0
151.0,1005.0,81.0
153.0,1005.0,98.0
125.0,1006.0,102.0
131.0,1000.0,97.0
158.0,995.0,90.0
139.0,996.0,89.0
124.0,1002.0,63.0
138.0,1014.0,68.0
150.0,1016.0,87.0
153.0,1007.0,103.0
125.0,1006.0,81.0
143.0,997.0,112.0
132.0,987.0,81.0
135.0,999.0,104.0
143.0,1002.0,100.0
142.0,1000.0,84.0
127.0,999.0,77.0
131.0,988.0,88.0
145.0,999.0,90.0
142.0,1014.0,94.0
147.0,1001.0,79.0
156.0,1010.0,74.0
137.0,1002.0,84.0
133.0,1002.0,93.0
132.0,999.0,100.0
143.0,1004.0,94.0
125.0,998.0,72.0
143.0,997.0,81.0
142.0,1006.0,90.0
132.0,994.0,84.0
125.0,1003.0,86.0
150.0,1008.0,64.0
144.0,988.0,102.0
140.0,1007.0,113.0
167.0,1010.0,85.0
130.0,1007.0,101.0
138.0,998.0,93.0
134.0,1012.0,93.0
148.0,1023.0,89.0
137.0,1011.0,88.0
141.0,997.0,84.0
127.0,1004.0,90.0
132.0,1016.0,92.0
133.0,987.0,102.0
134.0,986.0,90.0
144.0,991.0,84.0
155.0,1001.0,102.0
160.0,992.0,87.0
149.0,996.0,80.0
141.0,985.0,81.0
146.0,999.0,80.0
127.0,997.0,87.0
119.0,1012.0,88.0
150.0,983.0,72.0
151.0,999.0,66.0
153.0,1016.0,57.0
144.0,1006.0,88.0
143.0,1023.0,92.0
133.0,1016.0,102.0
163.0,1035.0,70.0
179.0,1034.0,41.0
148.0,1021.0,56.0
118.0,980.0,100.0
107.0,984.0,126.0
115.0,995.0,132.0
134.0,1003.0,115.0
143.0,1017.0,115.0
169.0,1016.0,96.0
138.0,1001.0,81.0
114.0,976.0,104.0
122.0,985.0,98.0
116.0,981.0,114.0
150.0,982.0,85.0
152.0,1006.0,90.0
152.0,987.0,82.0
152.0,1006.0,71.0
181.0,986.0,60.0
157.0,987.0,76.0
146.0,988.0,73.0
148.0,1012.0,57.0
149.0,1010.0,81.0
159.0,1009.0,76.0
138.0,1012.0,89.0
147.0,1003.0,68.0
142.0,1003.0,91.0
176.0,991.0,59.0
163.0,1007.0,92.0
135.0,989.0,96.0
125.0,1001.0,92.0
131.0,1015.0,65.0
143.0,1024.0,78.0
143.0,1006.0,102.0
121.0,999.0,94.0
96.0,1012.0,121.0
118.0,1001.0,103.0
123.0,1024.0,126.0
127.0,999.0,101.0
133.0,992.0,95.0
136.0,990.0,103.0
147.0,995.0,98.0
134.0,1012.0,84.0
136.0,1013.0,81.0
133.0,980.0,75.0
153.0,1012.0,75.0
95.0,1007.0,108.0
172.0,1006.0,104.0
129.0,997.0,101.0
124.0,1006.0,102.0
140.0,997.0,71.0
140.0,1005.0,95.0
165.0,999.0,87.0
132.0,1015.0,69.0
141.0,986.0,58.0
135.0,978.0,88.0
112.0,998.0,93.0
90.0,1020.0,86.0
106.0,1003.0,82.0
129.0,995.0,70.0
168.0,1001.0,64.0
138.0,1020.0,69.0
125.0,1039.0,63.0
123.0,1062.0,69.0
150.0,1037.0,71.0
171.0,1006.0,81.0
130.0,996.0,81.0
105.0,985.0,107.0
105.0,965.0,103.0
108.0,990.0,70.0
133.0,1031.0,63.0
162.0,1034.0,42.0
192.0,1007.0,63.0
197.0,982.0,16.0
172.0,990.0,31.0
130.0,1014.0,62.0
167.0,1032.0,70.0
196.0,1037.0,89.0
224.0,1018.0,51.0
197.0,1017.0,88.0
179.0,971.0,64.0
200.0,959.0,61.0
171.0,979.0,61.0
167.0,998.0,73.0
145.0,1008.0,98.0
161.0,1014.0,106.0
137.0,1002.0,78.0
150.0,990.0,97.0
170.0,975.0,90.0
159.0,999.0,118.0
165.0,976.0,101.0
186.0,984.0,74.0
167.0,994.0,99.0
159.0,976.0,89.0
165.0,992.0,69.0
135.0,1007.0,99.0
168.0,987.0,83.0
181.0,1016.0,61.0
170.0,1025.0,83.0
161.0,1021.0,114.0
147.0,1009.0,107.0
123.0,1006.0,93.0
169.0,981.0,104.0
149.0,1007.0,101.0
133.0,997.0,103.0
152.0,1000.0,99.0
177.0,974.0,83.0
205.0,967.0,84.0
204.0,998.0,60.0
205.0,981.0,53.0
164.0,1037.0,95.0
122.0,988.0,96.0
161.0,993.0,62.0
114.0,1025.0,81.0
145.0,996.0,81.0
167.0,989.0,66.0
199.0,1008.0,32.0
165.0,1020.0,69.0
158.0,1035.0,68.0
144.0,1014.0,98.0
169.0,987.0,126.0
149.0,1000.0,116.0
144.0,1020.0,108.0
135.0,1003.0,94.0
150.0,993.0,98.0
162.0,1006.0,104.0
123.0,990.0,85.0
166.0,1001.0,71.0
147.0,1034.0,71.0
133.0,1006.0,81.0
161.0,990.0,78.0
150.0,1047.0,54.0
101.0,1037.0,96.0
120.0,996.0,108.0
178.0,964.0,131.0
171.0,1009.0,70.0
139.0,1028.0,90.0
179.0,991.0,96.0
188.0,983.0,127.0
123.0,973.0,89.0
140.0,996.0,64.0
128.0,1015.0,102.0
171.0,1001.0,101.0
163.0,994.0,94.0
145.0,1016.0,82.0
133.0,978.0,71.0
192.0,988.0,61.0
184.0,995.0,76.0
141.0,987.0,100.0
174.0,1000.0,65.0
181.0,1005.0,97.0
145.0,1004.0,103.0
162.0,986.0,98.0
168.0,989.0,89.0
133.0,1040.0,101.0
159.0,1016.0,120.0
166.0,978.0,75.0
168.0,978.0,71.0
170.0,983.0,71.0
188.0,1004.0,71.0
173.0,989.0,71.0
181.0,987.0,81.0
149.0,1015.0,92.0
116.0,997.0,93.0
133.0,1005.0,103.0
151.0,998.0,101.0
151.0,1020.0,106.0
132.0,1008.0,129.0
184.0,989.0,106.0
154.0,995.0,94.0
157.0,1001.0,81.0
139.0,963.0,99.0
167.0,974.0,78.0
150.0,999.0,92.0
156.0,986.0,96.0
148.0,1011.0,107.0
132.0,1025.0,123.0
143.0,1006.0,112.0
154.0,978.0,90.0
169.0,1009.0,70.0
166.0,1000.0,45.0
193.0,990.0,35.0
224.0,992.0,32.0
253.0,995.0,14.0
200.0,1013.0,51.0
184.0,990.0,56.0
157.0,1002.0,84.0
151.0,985.0,65.0
157.0,1001.0,73.0
170.0,999.0,91.0
157.0,1003.0,99.0
157.0,1006.0,103.0
189.0,989.0,83.0
181.0,968.0,61.0
210.0,1017.0,51.0
209.0,1013.0,63.0
204.0,995.0,85.0
150.0,983.0,86.0
154.0,962.0,62.0
187.0,996.0,123.0
193.0,985.0,74.0
202.0,984.0,63.0
199.0,998.0,109.0
188.0,1000.0,76.0
147.0,1001.0,93.0
195.0,951.0,89.0
206.0,999.0,95.0
167.0,991.0,88.0
151.0,977.0,131.0
199.0,1005.0,82.0
169.0,1004.0,104.0
144.0,989.0,98.0
154.0,991.0,84.0
163.0,959.0,88.0
178.0,1013.0,86.0
203.0,1017.0,104.0
162.0,1002.0,106.0
177.0,983.0,105.0
148.0,962.0,92.0
233.0,984.0,105.0
202.0,1017.0,59.0
183.0,1017.0,56.0
185.0,964.0,69.0
143.0,988.0,80.0
143.0,1017.0,81.0
170.0,979.0,111.0
181.0,988.0,100.0
190.0,1016.0,72.0
152.0,1000.0,94.0
141.0,975.0,104.0
138.0,994.0,93.0
112.0,987.0,69.0
144.0,989.0,91.0
117.0,1023.0,106.0
126.0,1005.0,92.0
93.0,1013.0,104.0
93.0,999.0,68.0
140.0,983.0,40.0
163.0,1047.0,46.0
153.0,1030.0,87.0
161.0,1024.0,83.0
144.0,1016.0,71.0
135.0,995.0,72.0
171.0,964.0,89.0
160.0,1043.0,35.0
148.0,1005.0,68.0
150.0,973.0,99.0
153.0,1016.0,78.0
116.0,1006.0,78.0
132.0,996.0,73.0
131.0,1018.0,84.0
142.0,1015.0,79.0
176.0,996.0,73.0
214.0,991.0,35.0
213.0,982.0,32.0
192.0,1005.0,20.0
182.0,988.0,56.0
171.0,997.0,92.0
151.0,1007.0,102.0
144.0,1020.0,91.0
166.0,980.0,94.0
151.0,1018.0,86.0
144.0,989.0,91.0
168.0,1001.0,109.0
152.0,989.0,89.0
133.0,989.0,95.0
131.0,1007.0,117.0
175.0,1013.0,104.0
144.0,994.0,95.0
168.0,1006.0,104.0
133.0,983.0,103.0
161.0,998.0,69.0
126.0,1009.0,49.0
188.0,978.0,61.0
199.0,1035.0,63.0
192.0,1013.0,63.0
199.0,1004.0,31.0
186.0,971.0,103.0
182.0,992.0,70.0
159.0,1028.0,110.0
167.0,1004.0,104.0
181.0,1000.0,125.0
129.0,1004.0,102.0
121.0,983.0,104.0
107.0,976.0,95.0
143.0,988.0,89.0
154.0,1015.0,101.0
152.0,1006.0,93.0
135.0,999.0,101.0
124.0,968.0,112.0
84.0,1016.0,122.0
74.0,999.0,101.0
131.0,1048.0,118.0
90.0,1025.0,144.0
115.0,1003.0,141.0
120.0,1012.0,164.0
94.0,1019.0,163.0
93.0,983.0,136.0
115.0,1004.0,148.0
138.0,1015.0,117.0
131.0,1019.0,101.0
133.0,987.0,127.0
162.0,975.0,81.0
152.0,979.0,76.0
169.0,977.0,83.0
181.0,987.0,61.0
181.0,1006.0,81.0
182.0,996.0,70.0
178.0,1010.0,57.0
176.0,1010.0,60.0
183.0,999.0,91.0
143.0,1001.0,71.0
148.0,1002.0,123.0
177.0,994.0,126.0
163.0,1002.0,121.0
169.0,1006.0,90.0
203.0,1005.0,87.0
198.0,1019.0,93.0
195.0,1001.0,93.0
180.0,979.0,74.0
190.0,986.0,89.0
190.0,987.0,93.0
199.0,1016.0,82.0
126.0,972.0,127.0
99.0,953.0,150.0
141.0,951.0,114.0
149.0,955.0,104.0
149.0,1032.0,113.0
203.0,1033.0,110.0
209.0,1023.0,100.0
180.0,973.0,131.0
179.0,977.0,110.0
158.0,1000.0,112.0
185.0,1013.0,94.0
177.0,1004.0,110.0
169.0,977.0,85.0
164.0,996.0,109.0
143.0,987.0,73.0
172.0,997.0,72.0
189.0,999.0,79.0
180.0,1013.0,72.0
181.0,984.0,69.0
180.0,1001.0,77.0
162.0,1009.0,94.0
137.0,1029.0,94.0
153.0,1017.0,103.0
165.0,1018.0,73.0
188.0,998.0,62.0
200.0,982.0,92.0
167.0,995.0,111.0
154.0,1002.0,118.0
143.0,1001.0,140.0
144.0,969.0,133.0
133.0,986.0,132.0
143.0,978.0,122.0
166.0,979.0,112.0
185.0,987.0,125.0
152.0,986.0,115.0
190.0,988.0,107.0
165.0,999.0,97.0
162.0,992.0,60.0
180.0,1005.0,92.0
141.0,996.0,96.0
143.0,1016.0,135.0
155.0,1007.0,131.0
155.0,1000.0,117.0
174.0,1000.0,139.0
138.0,1003.0,150.0
141.0,999.0,155.0
152.0,978.0,113.0
171.0,997.0,132.0
171.0,995.0,109.0
170.0,1002.0,107.0
162.0,1008.0,134.0
175.0,975.0,130.0
164.0,973.0,117.0
174.0,958.0,118.0
210.0,968.0,137.0
196.0,978.0,121.0
169.0,1012.0,109.0
185.0,1001.0,116.0
196.0,976.0,102.0
192.0,1018.0,99.0
149.0,965.0,54.0
206.0,992.0,87.0
172.0,997.0,112.0
200.0,1006.0,111.0
160.0,987.0,94.0
163.0,1005.0,126.0
137.0,983.0,165.0
151.0,988.0,182.0
140.0,971.0,122.0
127.0,989.0,158.0
130.0,1008.0,157.0
150.0,1000.0,149.0
153.0,995.0,137.0
146.0,998.0,159.0
142.0,988.0,156.0
128.0,994.0,146.0
151.0,990.0,131.0
151.0,985.0,143.0
162.0,997.0,103.0
152.0,987.0,122.0
142.0,1006.0,102.0
134.0,1005.0,137.0
156.0,1004.0,138.0
160.0,981.0,134.0
150.0,994.0,126.0
156.0,988.0,107.0
165.0,997.0,99.0
172.0,1005.0,119.0
144.0,1037.0,166.0
160.0,992.0,164.0
139.0,997.0,129.0
142.0,978.0,113.0
112.0,994.0,118.0
120.0,1019.0,150.0
133.0,997.0,143.0
124.0,1006.0,122.0
125.0,988.0,133.0
133.0,994.0,143.0
121.0,979.0,170.0
113.0,998.0,177.0
119.0,981.0,148.0
137.0,992.0,159.0
123.0,998.0,158.0
112.0,1009.0,129.0
118.0,992.0,145.0
137.0,991.0,120.0
139.0,998.0,162.0
129.0,995.0,139.0
145.0,997.0,116.0
109.0,1004.0,142.0
113.0,1016.0,152.0
133.0,997.0,162.0
153.0,985.0,133.0
149.0,967.0,154.0
133.0,981.0,137.0
131.0,988.0,137.0
123.0,1017.0,157.0
122.0,1032.0,142.0
108.0,1003.0,112.0
111.0,997.0,125.0
143.0,994.0,146.0
157.0,1003.0,105.0
173.0,1010.0,114.0
142.0,1033.0,92.0
137.0,1012.0,134.0
153.0,996.0,110.0
143.0,997.0,62.0
171.0,1006.0,72.0
151.0,1004.0,113.0
153.0,985.0,112.0
138.0,963.0,125.0
139.0,980.0,113.0
151.0,1017.0,92.0
164.0,986.0,126.0
195.0,992.0,120.0
162.0,1000.0,93.0
151.0,1008.0,92.0
156.0,997.0,96.0
177.0,998.0,116.0
180.0,994.0,118.0
189.0,1000.0,93.0
174.0,969.0,94.0
170.0,996.0,80.0
181.0,997.0,112.0
181.0,1014.0,71.0
167.0,988.0,94.0
153.0,1004.0,92.0
162.0,985.0,104.0
164.0,999.0,122.0
169.0,997.0,119.0
160.0,988.0,88.0
162.0,1002.0,91.0
166.0,1003.0,105.0
168.0,980.0,101.0
157.0,995.0,85.0
173.0,997.0,75.0
153.0,995.0,111.0
169.0,1015.0,83.0
154.0,998.0,111.0
152.0,1006.0,92.0
162.0,1005.0,121.0
164.0,995.0,93.0
171.0,1002.0,109.0
173.0,1010.0,78.0
164.0,983.0,97.0
155.0,1002.0,108.0
178.0,987.0,104.0
178.0,997.0,116.0
158.0,997.0,102.0
157.0,985.0,111.0
162.0,1021.0,105.0
169.0,1011.0,95.0
171.0,998.0,112.0
171.0,987.0,121.0
170.0,996.0,104.0
181.0,997.0,81.0
162.0,997.0,93.0
170.0,1008.0,103.0
149.0,1024.0,115.0
155.0,998.0,118.0
167.0,1001.0,96.0
183.0,982.0,94.0
161.0,974.0,109.0
171.0,989.0,100.0
157.0,1016.0,67.0
160.0,1002.0,97.0
148.0,986.0,117.0
156.0,1013.0,96.0
149.0,1009.0,98.0
140.0,980.0,121.0
170.0,995.0,113.0
162.0,997.0,112.0
171.0,1008.0,78.0
159.0,1011.0,64.0
155.0,988.0,96.0
159.0,1008.0,98.0
140.0,1002.0,75.0
165.0,991.0,93.0
183.0,990.0,90.0
174.0,998.0,74.0
149.0,1017.0,106.0
173.0,990.0,95.0
180.0,981.0,117.0
185.0,987.0,90.0
161.0,1002.0,128.0
173.0,1006.0,96.0
116.0,1023.0,129.0
152.0,1006.0,122.0
134.0,980.0,112.0
162.0,1018.0,89.0
142.0,997.0,98.0
165.0,980.0,107.0
147.0,985.0,73.0
171.0,992.0,96.0
147.0,990.0,107.0
176.0,996.0,80.0
150.0,996.0,66.0
154.0,993.0,82.0
168.0,1012.0,69.0
156.0,993.0,97.0
146.0,1015.0,85.0
198.0,999.0,81.0
146.0,997.0,90.0
190.0,997.0,112.0
150.0,1024.0,64.0
190.0,995.0,122.0
186.0,996.0,102.0
146.0,973.0,104.0
177.0,983.0,74.0
181.0,986.0,104.0
156.0,1007.0,100.0
173.0,991.0,124.0
173.0,1001.0,104.0
151.0,986.0,95.0
177.0,995.0,99.0
190.0,1001.0,88.0
168.0,1009.0,71.0
168.0,1018.0,70.0
164.0,989.0,90.0
133.0,987.0,122.0
123.0,1016.0,141.0
142.0,1007.0,110.0
197.0,1025.0,113.0
127.0,997.0,94.0
122.0,990.0,105.0
157.0,994.0,129.0
185.0,986.0,91.0
151.0,1012.0,117.0
154.0,1019.0,86.0
162.0,988.0,104.0
165.0,994.0,90.0
139.0,989.0,101.0
146.0,986.0,115.0
162.0,987.0,128.0
162.0,987.0,133.0
171.0,978.0,122.0
169.0,979.0,121.0
156.0,998.0,103.0
191.0,1005.0,112.0
164.0,992.0,114.0
166.0,989.0,122.0
169.0,995.0,127.0
159.0,981.0,127.0
167.0,976.0,124.0
143.0,986.0,113.0
141.0,1009.0,119.0
171.0,1018.0,78.0
211.0,1001.0,82.0
208.0,995.0,45.0
180.0,1013.0,84.0
199.0,1017.0,74.0
200.0,997.0,81.0
207.0,1016.0,102.0
168.0,1015.0,91.0
161.0,1015.0,110.0
137.0,1001.0,125.0
138.0,980.0,106.0
158.0,982.0,133.0
159.0,982.0,103.0
147.0,981.0,130.0
134.0,989.0,144.0
118.0,1013.0,131.0
141.0,995.0,121.0
130.0,991.0,155.0
116.0,1005.0,132.0
105.0,1007.0,169.0
140.0,988.0,145.0
133.0,997.0,132.0
97.0,987.0,122.0
122.0,1008.0,133.0
85.0,1014.0,132.0
143.0,989.0,143.0
165.0,981.0,123.0
158.0,1001.0,112.0
187.0,1005.0,107.0
173.0,980.0,99.0
166.0,977.0,78.0
131.0,1006.0,76.0
157.0,980.0,81.0
147.0,1008.0,101.0
151.0,971.0,117.0
135.0,1016.0,92.0
159.0,1010.0,102.0
181.0,987.0,102.0
189.0,1007.0,109.0
161.0,1026.0,75.0
176.0,1021.0,108.0
175.0,1002.0,71.0
148.0,995.0,91.0
177.0,999.0,74.0
181.0,1004.0,113.0
154.0,989.0,115.0
147.0,991.0,116.0
142.0,1003.0,94.0
143.0,1001.0,126.0
138.0,992.0,120.0
128.0,1007.0,101.0
176.0,980.0,119.0
164.0,995.0,132.0
152.0,997.0,122.0
143.0,997.0,113.0
163.0,986.0,120.0
147.0,1002.0,88.0
149.0,1011.0,100.0
157.0,997.0,122.0
143.0,1004.0,91.0
152.0,994.0,107.0
135.0,993.0,121.0
134.0,983.0,131.0
127.0,997.0,108.0
126.0,1015.0,97.0
150.0,1008.0,132.0
138.0,998.0,116.0
139.0,987.0,102.0
145.0,996.0,102.0
133.0,1006.0,92.0
171.0,996.0,70.0
165.0,999.0,65.0
188.0,1015.0,92.0
159.0,1004.0,99.0
159.0,1005.0,103.0
121.0,1008.0,90.0
114.0,1014.0,147.0
114.0,998.0,130.0
112.0,1001.0,113.0
125.0,1007.0,96.0
141.0,1000.0,114.0
150.0,983.0,89.0
140.0,980.0,93.0
114.0,1006.0,130.0
132.0,979.0,123.0
133.0,1005.0,122.0
143.0,995.0,112.0
133.0,979.0,122.0
132.0,986.0,108.0
137.0,960.0,106.0
153.0,954.0,123.0
156.0,985.0,105.0
154.0,1013.0,125.0
120.0,1087.0,124.0
115.0,1079.0,132.0
144.0,1028.0,102.0
147.0,989.0,75.0
136.0,972.0,83.0
123.0,1007.0,88.0
156.0,1035.0,102.0
171.0,1017.0,102.0
162.0,1006.0,112.0
132.0,998.0,122.0
124.0,1014.0,111.0
128.0,984.0,100.0
171.0,988.0,93.0
179.0,984.0,88.0
200.0,973.0,86.0
161.0,970.0,106.0
143.0,981.0,92.0
157.0,993.0,83.0
135.0,995.0,132.0
119.0,1000.0,99.0
121.0,984.0,115.0
116.0,1005.0,106.0
144.0,988.0,127.0
163.0,1005.0,115.0
133.0,978.0,112.0
124.0,1006.0,123.0
125.0,996.0,142.0
133.0,996.0,117.0
147.0,1000.0,104.0
130.0,1000.0,130.0
124.0,1007.0,119.0
137.0,1015.0,87.0
134.0,1000.0,97.0
152.0,1012.0,105.0
135.0,988.0,92.0
129.0,1010.0,108.0
157.0,982.0,103.0
148.0,997.0,118.0
149.0,1017.0,106.0
144.0,989.0,110.0
151.0,978.0,103.0
151.0,987.0,93.0
145.0,998.0,120.0
148.0,1005.0,103.0
121.0,994.0,124.0
127.0,1002.0,106.0
137.0,1016.0,104.0
160.0,998.0,117.0
157.0,1001.0,95.0
155.0,1001.0,93.0
170.0,999.0,124.0
164.0,1010.0,114.0
168.0,989.0,105.0
166.0,1000.0,107.0
144.0,1008.0,123.0
159.0,988.0,94.0
181.0,997.0,101.0
170.0,997.0,102.0
162.0,997.0,116.0
161.0,994.0,125.0
150.0,988.0,94.0
155.0,997.0,110.0
163.0,998.0,109.0
163.0,1005.0,132.0
175.0,991.0,123.0
158.0,1006.0,130.0
161.0,987.0,111.0
175.0,984.0,84.0
157.0,1009.0,89.0
149.0,989.0,97.0
177.0,995.0,130.0
173.0,997.0,105.0
152.0,1005.0,102.0
152.0,1005.0,71.0
173.0,998.0,94.0
179.0,1003.0,92.0
158.0,985.0,119.0
152.0,985.0,100.0
150.0,992.0,105.0
142.0,988.0,114.0
162.0,978.0,108.0
146.0,967.0,94.0
136.0,994.0,96.0
146.0,1029.0,110.0
146.0,1051.0,105.0
169.0,1031.0,114.0
164.0,1017.0,118.0
145.0,982.0,150.0
115.0,968.0,163.0
106.0,959.0,141.0
145.0,980.0,120.0
141.0,1000.0,116.0
147.0,1014.0,127.0
147.0,1006.0,99.0
131.0,1015.0,102.0
131.0,997.0,111.0
122.0,978.0,143.0
125.0,991.0,170.0
127.0,1010.0,169.0
142.0,997.0,108.0
142.0,996.0,146.0
145.0,997.0,124.0
126.0,981.0,108.0
140.0,984.0,131.0
152.0,1016.0,123.0
142.0,986.0,102.0
134.0,987.0,125.0
152.0,975.0,127.0
143.0,984.0,115.0
171.0,1007.0,115.0
159.0,1003.0,90.0
145.0,990.0,105.0
148.0,994.0,104.0
151.0,1008.0,114.0
162.0,1000.0,111.0
136.0,994.0,117.0
133.0,1000.0,127.0
132.0,979.0,103.0
142.0,994.0,112.0
127.0,997.0,101.0
123.0,1024.0,122.0
152.0,1005.0,92.0
131.0,979.0,100.0
125.0,999.0,100.0
123.0,1003.0,124.0
129.0,997.0,100.0
146.0,1009.0,126.0
140.0,1001.0,95.0
147.0,1014.0,123.0
128.0,1002.0,93.0
107.0,1004.0,108.0
104.0,990.0,96.0
112.0,1005.0,114.0
120.0,1018.0,94.0
142.0,1015.0,101.0
142.0,999.0,75.0
152.0,1005.0,70.0
124.0,1016.0,92.0
131.0,1017.0,104.0
105.0,1024.0,121.0
126.0,1012.0,81.0
94.0,1004.0,67.0
110.0,991.0,99.0
133.0,989.0,100.0
145.0,998.0,84.0
165.0,994.0,84.0
166.0,1002.0,69.0
163.0,1002.0,100.0
131.0,987.0,101.0
102.0,994.0,88.0
92.0,1004.0,108.0
122.0,1015.0,131.0
133.0,1006.0,94.0
152.0,1006.0,82.0
141.0,997.0,102.0
133.0,1007.0,101.0
118.0,1002.0,103.0
106.0,998.0,101.0
114.0,1007.0,105.0
120.0,1004.0,95.0
134.0,1007.0,98.0
118.0,999.0,96.0
139.0,1000.0,94.0
131.0,1012.0,79.0
127.0,1017.0,106.0
142.0,1002.0,90.0
136.0,987.0,86.0
108.0,996.0,119.0
104.0,997.0,123.0
133.0,987.0,81.0
142.0,999.0,94.0
123.0,1002.0,103.0
123.0,989.0,114.0
97.0,1009.0,124.0
106.0,1019.0,117.0
121.0,1020.0,117.0
97.0,1020.0,112.0
95.0,1015.0,77.0
103.0,1003.0,73.0
130.0,1008.0,103.0
132.0,1039.0,114.0
141.0,1024.0,99.0
136.0,999.0,71.0
124.0,987.0,98.0
115.0,1005.0,112.0
105.0,997.0,112.0
134.0,997.0,92.0
144.0,997.0,100.0
137.0,1008.0,78.0
129.0,999.0,84.0
138.0,987.0,95.0
108.0,999.0,84.0
119.0,991.0,93.0
134.0,988.0,88.0
141.0,1002.0,76.0
133.0,978.0,106.0
157.0,1004.0,91.0
127.0,1012.0,95.0
133.0,1002.0,89.0
115.0,1024.0,86.0
106.0,1007.0,69.0
96.0,1016.0,100.0
138.0,1012.0,11.0
79.0,980.0,188.0
136.0,1021.0,79.0
96.0,1008.0,82.0
113.0,996.0,75.0
130.0,996.0,87.0
99.0,996.0,94.0
90.0,1000.0,79.0
116.0,1007.0,81.0
91.0,1007.0,96.0
81.0,1023.0,85.0
117.0,988.0,59.0
116.0,1019.0,54.0
131.0,1009.0,100.0
107.0,1023.0,82.0
95.0,1035.0,103.0
104.0,1004.0,132.0
94.0,999.0,120.0
95.0,1018.0,111.0
96.0,1025.0,96.0
112.0,1021.0,101.0
123.0,1015.0,126.0
107.0,1012.0,118.0
107.0,1000.0,108.0
97.0,991.0,115.0
110.0,979.0,66.0
142.0,987.0,92.0
135.0,1021.0,80.0
132.0,1004.0,85.0
142.0,985.0,85.0
134.0,1005.0,70.0
124.0,997.0,81.0
131.0,1006.0,62.0
104.0,996.0,82.0
119.0,1010.0,80.0
121.0,1024.0,81.0
132.0,992.0,81.0
137.0,999.0,62.0
97.0,1008.0,99.0
85.0,999.0,113.0
90.0,1000.0,109.0
88.0,1002.0,102.0
71.0,1003.0,107.0
107.0,1022.0,27.0
31.0,1002.0,95.0
106.0,1012.0,89.0
79.0,1008.0,117.0
95.0,997.0,163.0
78.0,1004.0,111.0
127.0,988.0,111.0
110.0,1006.0,89.0
102.0,993.0,97.0
100.0,1000.0,98.0
110.0,1006.0,95.0
95.0,1001.0,103.0
114.0,998.0,95.0
142.0,1009.0,60.0
144.0,997.0,47.0
127.0,998.0,23.0
156.0,987.0,36.0
156.0,1009.0,34.0
142.0,1018.0,47.0
162.0,997.0,62.0
133.0,1016.0,61.0
103.0,1014.0,93.0
64.0,998.0,105.0
88.0,1018.0,105.0
140.0,995.0,69.0
157.0,981.0,84.0
131.0,1017.0,82.0
70.0,1021.0,98.0
91.0,1011.0,103.0
91.0,998.0,100.0
108.0,997.0,102.0
76.0,998.0,58.0
85.0,1024.0,77.0
93.0,1015.0,113.0
67.0,1034.0,102.0
85.0,1007.0,102.0
86.0,1035.0,122.0
107.0,1013.0,129.0
124.0,997.0,92.0
124.0,996.0,88.0
125.0,1012.0,72.0
140.0,1021.0,57.0
153.0,1001.0,20.0
131.0,1009.0,69.0
99.0,993.0,66.0
85.0,993.0,82.0
113.0,1012.0,66.0
103.0,988.0,67.0
133.0,995.0,65.0
145.0,988.0,60.0
142.0,996.0,53.0
134.0,997.0,50.0
124.0,1016.0,61.0
124.0,1016.0,51.0
111.0,1024.0,77.0
83.0,1015.0,101.0
91.0,1012.0,90.0
108.0,1008.0,74.0
104.0,1010.0,85.0
124.0,995.0,117.0
110.0,1016.0,110.0
121.0,1027.0,100.0
133.0,1012.0,60.0
147.0,999.0,72.0
146.0,988.0,54.0
144.0,994.0,59.0
126.0,1005.0,68.0
133.0,1006.0,82.0
124.0,987.0,51.0
163.0,977.0,91.0
138.0,982.0,60.0
113.0,1005.0,86.0
100.0,1013.0,94.0
82.0,1043.0,120.0
92.0,985.0,137.0
87.0,1005.0,135.0
77.0,1003.0,118.0
93.0,1011.0,121.0
98.0,1022.0,104.0
125.0,1009.0,128.0
125.0,988.0,87.0
80.0,1010.0,84.0
84.0,1009.0,52.0
94.0,1005.0,99.0
114.0,1016.0,92.0
94.0,994.0,132.0
85.0,960.0,100.0
91.0,994.0,115.0
116.0,1020.0,93.0
114.0,1037.0,82.0
107.0,1012.0,83.0
98.0,1011.0,118.0
121.0,1009.0,108.0
96.0,1008.0,119.0
88.0,994.0,122.0
109.0,1015.0,110.0
122.0,991.0,105.0
125.0,1010.0,95.0
123.0,1000.0,81.0
133.0,1014.0,101.0
124.0,1006.0,81.0
123.0,1007.0,92.0
103.0,1014.0,82.0
122.0,993.0,105.0
140.0,989.0,96.0
136.0,1009.0,76.0
135.0,999.0,77.0
107.0,1002.0,117.0
97.0,1000.0,111.0
90.0,1005.0,105.0
127.0,1018.0,115.0
138.0,1009.0,99.0
159.0,997.0,87.0
149.0,1004.0,111.0
117.0,1005.0,77.0
105.0,1024.0,88.0
133.0,1016.0,112.0
161.0,1005.0,82.0
131.0,984.0,100.0
123.0,980.0,69.0
126.0,988.0,86.0
117.0,1017.0,93.0
128.0,1011.0,88.0
147.0,1006.0,84.0
112.0,1022.0,89.0
121.0,1021.0,86.0
129.0,1004.0,118.0
134.0,980.0,86.0
144.0,996.0,83.0
151.0,1003.0,75.0
107.0,1015.0,136.0
114.0,1007.0,115.0
95.0,978.0,112.0
124.0,998.0,91.0
93.0,1005.0,92.0
119.0,1007.0,81.0
97.0,1001.0,107.0
144.0,1000.0,85.0
49.0,986.0,154.0
133.0,1014.0,84.0
83.0,1052.0,118.0
-34.0,999.0,179.0
95.0,1008.0,112.0
71.0,1027.0,114.0
121.0,1033.0,105.0
94.0,998.0,113.0
120.0,1021.0,121.0
125.0,1008.0,121.0
114.0,1006.0,142.0
124.0,996.0,92.0
124.0,989.0,101.0
122.0,1006.0,96.0
117.0,1008.0,122.0
136.0,1014.0,98.0
117.0,1001.0,96.0
138.0,991.0,62.0
125.0,992.0,89.0
101.0,1015.0,104.0
101.0,1004.0,101.0
98.0,992.0,102.0
110.0,1012.0,107.0
88.0,1002.0,129.0
87.0,994.0,140.0
85.0,1016.0,143.0
95.0,987.0,122.0
98.0,988.0,111.0
140.0,997.0,93.0
91.0,1008.0,100.0
111.0,1000.0,96.0
114.0,1004.0,107.0
127.0,1009.0,76.0
120.0,1001.0,103.0
105.0,1018.0,93.0
99.0,1016.0,99.0
128.0,1003.0,103.0
105.0,1001.0,138.0
116.0,1005.0,126.0
89.0,1014.0,137.0
110.0,1000.0,135.0
97.0,1004.0,114.0
142.0,1006.0,72.0
169.0,988.0,72.0
143.0,1015.0,56.0
141.0,994.0,48.0
134.0,999.0,82.0
141.0,995.0,88.0
117.0,1012.0,95.0
138.0,991.0,88.0
147.0,1002.0,95.0
124.0,1007.0,90.0
127.0,999.0,123.0
119.0,1001.0,95.0
141.0,1000.0,128.0
121.0,1014.0,129.0
97.0,1023.0,152.0
77.0,1017.0,142.0
104.0,1006.0,163.0
132.0,1005.0,79.0
138.0,997.0,96.0
170.0,1005.0,99.0
148.0,994.0,106.0
122.0,999.0,92.0
111.0,991.0,91.0
117.0,992.0,128.0
111.0,1007.0,101.0
128.0,988.0,130.0
148.0,1020.0,88.0
147.0,999.0,98.0
162.0,983.0,40.0
99.0,993.0,91.0
153.0,1007.0,94.0
129.0,987.0,49.0
142.0,1024.0,101.0
131.0,1005.0,102.0
105.0,1006.0,101.0
107.0,1007.0,94.0
126.0,1014.0,114.0
105.0,992.0,95.0
117.0,1001.0,116.0
105.0,1007.0,131.0
77.0,1020.0,140.0
96.0,1002.0,129.0
43.0,1006.0,126.0
66.0,1019.0,102.0
106.0,1007.0,128.0
107.0,1005.0,108.0
149.0,1006.0,104.0
143.0,1005.0,55.0
152.0,1016.0,70.0
124.0,997.0,51.0
110.0,997.0,97.0
63.0,997.0,112.0
69.0,992.0,129.0
68.0,993.0,161.0
97.0,1017.0,149.0
106.0,1001.0,96.0
129.0,1008.0,98.0
146.0,1002.0,101.0
133.0,1013.0,104.0
108.0,1005.0,88.0
112.0,985.0,85.0
101.0,1002.0,110.0
78.0,1014.0,112.0
75.0,1017.0,121.0
95.0,997.0,122.0
96.0,1006.0,112.0
115.0,996.0,113.0
115.0,1010.0,107.0
139.0,1021.0,97.0
135.0,990.0,139.0
109.0,1022.0,106.0
100.0,1020.0,112.0
98.0,989.0,100.0
103.0,985.0,125.0
85.0,1035.0,112.0
98.0,1027.0,153.0
113.0,968.0,126.0
107.0,1020.0,133.0
110.0,993.0,112.0
149.0,994.0,81.0
144.0,1016.0,81.0
124.0,996.0,102.0
100.0,999.0,118.0
70.0,1001.0,173.0
96.0,963.0,135.0
102.0,973.0,132.0
125.0,991.0,118.0
136.0,996.0,122.0
168.0,1001.0,103.0
153.0,998.0,106.0
122.0,980.0,83.0
120.0,1003.0,72.0
117.0,998.0,98.0
121.0,1003.0,103.0
139.0,1006.0,101.0
154.0,1015.0,94.0
106.0,1025.0,101.0
143.0,1034.0,110.0
121.0,1015.0,76.0
114.0,1015.0,144.0
103.0,1002.0,106.0
89.0,997.0,148.0
75.0,1010.0,141.0
75.0,1012.0,136.0
110.0,1000.0,118.0
134.0,998.0,121.0
145.0,1016.0,100.0
133.0,996.0,116.0
84.0,990.0,135.0
53.0,993.0,146.0
68.0,974.0,147.0
121.0,1014.0,132.0
133.0,988.0,113.0
143.0,987.0,71.0
153.0,986.0,94.0
160.0,1002.0,116.0
137.0,1024.0,115.0
106.0,1015.0,93.0
115.0,1011.0,116.0
131.0,992.0,108.0
129.0,1002.0,91.0
151.0,1004.0,81.0
149.0,1011.0,74.0
124.0,1017.0,83.0
100.0,1013.0,100.0
85.0,1018.0,117.0
110.0,1005.0,132.0
107.0,1023.0,107.0
123.0,1016.0,81.0
143.0,996.0,121.0
133.0,979.0,69.0
130.0,998.0,102.0
112.0,995.0,130.0
100.0,997.0,123.0
102.0,994.0,116.0
112.0,985.0,98.0
131.0,1010.0,82.0
155.0,1006.0,70.0
154.0,1025.0,69.0
137.0,1018.0,85.0
121.0,997.0,99.0
71.0,1001.0,105.0
115.0,1018.0,98.0
131.0,987.0,107.0
257.0,1042.0,41.0
38.0,996.0,142.0
155.0,1001.0,98.0
76.0,1012.0,107.0
131.0,997.0,108.0
109.0,993.0,102.0
114.0,989.0,106.0
107.0,1010.0,127.0
105.0,998.0,115.0
83.0,999.0,117.0
111.0,983.0,118.0
118.0,986.0,103.0
127.0,1013.0,102.0
115.0,1009.0,95.0
101.0,996.0,90.0
115.0,1014.0,111.0
95.0,1016.0,102.0
114.0,1016.0,92.0
124.0,1016.0,106.0
134.0,1015.0,129.0
131.0,1004.0,113.0
124.0,1007.0,101.0
122.0,1005.0,93.0
110.0,1022.0,137.0
121.0,997.0,118.0
121.0,996.0,116.0
133.0,995.0,87.0
117.0,994.0,77.0
128.0,1010.0,103.0
127.0,984.0,115.0
117.0,966.0,111.0
79.0,1002.0,96.0
94.0,1006.0,71.0
105.0,997.0,112.0
93.0,998.0,101.0
78.0,1017.0,104.0
94.0,1014.0,113.0
72.0,1000.0,128.0
98.0,1003.0,145.0
98.0,1031.0,137.0
109.0,1032.0,124.0
141.0,1009.0,77.0
114.0,997.0,90.0
100.0,1015.0,91.0
79.0,1014.0,95.0
88.0,1022.0,135.0
112.0,1033.0,105.0
107.0,1043.0,102.0
104.0,1036.0,92.0
104.0,1005.0,122.0
88.0,987.0,119.0
102.0,999.0,77.0
76.0,991.0,74.0
101.0,981.0,78.0
107.0,1014.0,95.0
135.0,1008.0,142.0
140.0,992.0,110.0
127.0,1007.0,62.0
117.0,1020.0,80.0
82.0,1034.0,92.0
87.0,1016.0,111.0
111.0,1000.0,127.0
116.0,1024.0,111.0
105.0,1008.0,114.0
141.0,997.0,72.0
162.0,987.0,81.0
140.0,988.0,115.0
99.0,998.0,142.0
63.0,1006.0,147.0
60.0,990.0,156.0
86.0,992.0,114.0
115.0,990.0,124.0
141.0,993.0,99.0
107.0,991.0,96.0
79.0,1019.0,107.0
58.0,997.0,119.0
51.0,1005.0,122.0
72.0,1009.0,122.0
93.0,1021.0,129.0
87.0,1008.0,126.0
94.0,1015.0,82.0
105.0,1025.0,112.0
104.0,1022.0,113.0
96.0,1000.0,117.0
92.0,1023.0,98.0
91.0,992.0,129.0
102.0,1013.0,101.0
83.0,1014.0,142.0
80.0,1010.0,118.0
65.0,985.0,116.0
91.0,1003.0,121.0
94.0,1019.0,94.0
92.0,1007.0,107.0
73.0,1000.0,111.0
95.0,986.0,122.0
76.0,1012.0,86.0
130.0,1025.0,90.0
132.0,1016.0,102.0
93.0,1024.0,95.0
77.0,1004.0,132.0
85.0,1008.0,125.0
78.0,1001.0,158.0
101.0,1001.0,150.0
83.0,1016.0,171.0
66.0,1000.0,142.0
86.0,1011.0,123.0
72.0,988.0,131.0
78.0,1001.0,116.0
88.0,991.0,129.0
90.0,1000.0,88.0
119.0,1006.0,89.0
134.0,1015.0,84.0
106.0,998.0,90.0
114.0,1006.0,112.0
112.0,1005.0,93.0
107.0,994.0,100.0
111.0,1005.0,108.0
124.0,1031.0,96.0
135.0,999.0,73.0
97.0,1011.0,129.0
92.0,1017.0,106.0
115.0,1005.0,107.0
127.0,999.0,89.0
109.0,1007.0,117.0
117.0,1010.0,97.0
107.0,1019.0,129.0
103.0,999.0,107.0
130.0,997.0,110.0
134.0,988.0,130.0
114.0,987.0,163.0
115.0,997.0,122.0
112.0,1007.0,132.0
109.0,1015.0,122.0
136.0,1002.0,114.0
114.0,997.0,97.0
109.0,1011.0,123.0
133.0,1009.0,94.0
123.0,991.0,113.0
116.0,1009.0,99.0
137.0,1010.0,95.0
140.0,1003.0,112.0
122.0,1007.0,104.0
142.0,998.0,95.0
126.0,996.0,81.0
141.0,1005.0,92.0
133.0,1016.0,81.0
146.0,996.0,71.0
144.0,999.0,85.0
110.0,1005.0,100.0
125.0,1023.0,109.0
80.0,1027.0,116.0
100.0,1001.0,130.0
91.0,1004.0,156.0
79.0,992.0,103.0
121.0,1000.0,101.0
141.0,985.0,94.0
128.0,1007.0,145.0
94.0,1006.0,107.0
92.0,976.0,127.0
87.0,1011.0,123.0
94.0,1017.0,132.0
105.0,1006.0,102.0
143.0,1015.0,122.0
132.0,1007.0,113.0
146.0,1025.0,116.0
151.0,997.0,77.0
134.0,1007.0,83.0
106.0,1002.0,126.0
87.0,976.0,139.0
97.0,993.0,121.0
107.0,1006.0,172.0
131.0,1010.0,135.0
116.0,980.0,107.0
142.0,1012.0,93.0
160.0,1000.0,106.0
188.0,997.0,123.0
147.0,987.0,83.0
105.0,1006.0,92.0
84.0,996.0,144.0
67.0,999.0,163.0
93.0,1006.0,161.0
113.0,1020.0,133.0
123.0,1003.0,110.0
159.0,992.0,111.0
143.0,1001.0,95.0
157.0,981.0,96.0
167.0,1000.0,104.0
128.0,1029.0,100.0
127.0,994.0,103.0
101.0,995.0,106.0
101.0,973.0,131.0
113.0,990.0,114.0
132.0,1016.0,112.0
143.0,1006.0,71.0
142.0,1006.0,62.0
133.0,1018.0,87.0
130.0,1022.0,122.0
111.0,1018.0,94.0
117.0,1019.0,78.0
107.0,1006.0,89.0
94.0,1013.0,106.0
122.0,1003.0,118.0
126.0,1005.0,89.0
103.0,1007.0,100.0
113.0,992.0,107.0
106.0,991.0,115.0
119.0,1005.0,125.0
142.0,998.0,97.0
134.0,996.0,71.0
124.0,1006.0,92.0
133.0,997.0,73.0
124.0,1007.0,114.0
124.0,1003.0,112.0
141.0,997.0,106.0
161.0,993.0,100.0
136.0,1003.0,117.0
129.0,994.0,89.0
97.0,999.0,108.0
92.0,1018.0,97.0
126.0,1015.0,112.0
134.0,1007.0,105.0
127.0,1019.0,89.0
114.0,1006.0,68.0
123.0,977.0,99.0
124.0,1004.0,101.0
124.0,1006.0,142.0
114.0,1016.0,99.0
100.0,1004.0,98.0
66.0,1009.0,134.0
79.0,1013.0,129.0
92.0,1004.0,104.0
121.0,1005.0,109.0
126.0,1009.0,99.0
133.0,1023.0,79.0
117.0,1045.0,75.0
146.0,1016.0,90.0
135.0,978.0,135.0
115.0,977.0,102.0
99.0,984.0,88.0
101.0,996.0,103.0
132.0,1005.0,92.0
133.0,997.0,102.0
133.0,988.0,82.0
124.0,1017.0,102.0
123.0,1001.0,105.0
110.0,998.0,107.0
106.0,992.0,97.0
117.0,1008.0,109.0
108.0,1020.0,116.0
103.0,1000.0,141.0
80.0,1012.0,105.0
89.0,1016.0,106.0
89.0,1004.0,127.0
92.0,992.0,133.0
94.0,1008.0,133.0
120.0,980.0,115.0
116.0,1003.0,112.0
95.0,1006.0,102.0
106.0,997.0,93.0
111.0,1006.0,115.0
99.0,993.0,119.0
126.0,990.0,97.0
111.0,1006.0,73.0
134.0,989.0,63.0
140.0,992.0,72.0
130.0,1014.0,71.0
141.0,1012.0,65.0
137.0,1024.0,69.0
138.0,1010.0,95.0
145.0,1006.0,68.0
141.0,997.0,59.0
152.0,1013.0,62.0
143.0,999.0,52.0
143.0,987.0,51.0
124.0,1007.0,82.0
131.0,1016.0,67.0
114.0,1015.0,54.0
123.0,1000.0,72.0
99.0,1004.0,56.0
113.0,1025.0,69.0
128.0,1011.0,63.0
136.0,1018.0,76.0
122.0,1008.0,90.0
108.0,1010.0,78.0
98.0,1017.0,77.0
94.0,1014.0,68.0
102.0,1018.0,81.0
107.0,990.0,64.0
95.0,1003.0,69.0
114.0,1016.0,81.0
105.0,978.0,52.0
114.0,1008.0,82.0
104.0,1003.0,68.0
104.0,998.0,59.0
92.0,1008.0,71.0
100.0,999.0,87.0
105.0,1007.0,52.0
103.0,1024.0,78.0
85.0,1008.0,96.0
100.0,1003.0,82.0
93.0,1014.0,84.0
90.0,1008.0,70.0
96.0,1019.0,90.0
102.0,1027.0,74.0
123.0,1007.0,89.0
114.0,1006.0,92.0
106.0,997.0,82.0
101.0,1007.0,105.0
77.0,1018.0,118.0
97.0,1021.0,72.0
97.0,1003.0,97.0
104.0,1005.0,97.0
95.0,992.0,72.0
115.0,1000.0,76.0
130.0,991.0,78.0
129.0,1013.0,66.0
117.0,1000.0,81.0
107.0,1010.0,87.0
97.0,1008.0,80.0
93.0,1014.0,73.0
113.0,1007.0,80.0
114.0,1016.0,62.0
134.0,1025.0,42.0
142.0,1023.0,61.0
121.0,993.0,63.0
115.0,1003.0,70.0
109.0,1012.0,79.0
109.0,994.0,85.0
111.0,1014.0,56.0
127.0,1005.0,60.0
121.0,998.0,47.0
127.0,1013.0,54.0
120.0,1015.0,47.0
121.0,1010.0,67.0
116.0,988.0,64.0
123.0,1002.0,67.0
106.0,1007.0,91.0
132.0,997.0,72.0
123.0,1016.0,40.0
114.0,1003.0,57.0
116.0,1000.0,101.0
122.0,1013.0,62.0
116.0,995.0,67.0
120.0,1026.0,50.0
103.0,997.0,69.0
117.0,1017.0,60.0
91.0,998.0,29.0
122.0,1018.0,46.0
122.0,1039.0,48.0
112.0,1014.0,82.0
114.0,1002.0,64.0
123.0,1002.0,61.0
124.0,1007.0,52.0
133.0,1006.0,61.0
114.0,1016.0,71.0
125.0,1025.0,72.0
123.0,1010.0,69.0
125.0,988.0,77.0
123.0,1011.0,70.0
124.0,1015.0,41.0
124.0,1012.0,72.0
124.0,1002.0,86.0
124.0,1008.0,62.0
124.0,1005.0,61.0
123.0,1036.0,67.0
130.0,1004.0,65.0
134.0,1009.0,73.0
125.0,1017.0,62.0
123.0,1007.0,61.0
133.0,997.0,61.0
124.0,1015.0,62.0
124.0,985.0,70.0
124.0,1001.0,49.0
135.0,1002.0,54.0
114.0,999.0,61.0
113.0,1007.0,42.0
134.0,1023.0,35.0
120.0,1011.0,63.0
126.0,994.0,70.0
121.0,996.0,46.0
137.0,1008.0,47.0
146.0,1018.0,51.0
128.0,1014.0,59.0
115.0,1023.0,53.0
106.0,1026.0,59.0
105.0,1006.0,71.0
114.0,1046.0,50.0
118.0,1068.0,17.0
221.0,997.0,-12.0
259.0,978.0,28.0
129.0,977.0,107.0
38.0,992.0,149.0
-21.0,967.0,215.0
-13.0,938.0,203.0
35.0,985.0,122.0
125.0,990.0,97.0
175.0,996.0,74.0
135.0,1010.0,98.0
123.0,982.0,130.0
73.0,997.0,164.0
1.0,1060.0,186.0
47.0,1045.0,124.0
87.0,1045.0,101.0
100.0,1063.0,82.0
59.0,1033.0,103.0
118.0,955.0,53.0
164.0,942.0,10.0
212.0,950.0,19.0
237.0,966.0,13.0
213.0,985.0,51.0
142.0,1012.0,81.0
126.0,1028.0,76.0
91.0,1017.0,105.0
87.0,1009.0,100.0
77.0,997.0,83.0
99.0,997.0,56.0
107.0,1012.0,75.0
95.0,1053.0,102.0
114.0,1044.0,104.0
105.0,1041.0,136.0
116.0,1004.0,59.0
108.0,1019.0,97.0
98.0,1010.0,56.0
118.0,1009.0,56.0
115.0,1032.0,21.0
148.0,1025.0,28.0
117.0,1010.0,43.0
118.0,993.0,15.0
105.0,987.0,86.0
110.0,964.0,24.0
142.0,915.0,51.0
163.0,931.0,87.0
207.0,1024.0,60.0
219.0,1082.0,91.0
207.0,1005.0,92.0
108.0,1011.0,78.0
103.0,1040.0,66.0
162.0,1000.0,91.0
195.0,1015.0,104.0
199.0,1035.0,147.0
201.0,1017.0,147.0
165.0,1018.0,139.0
115.0,1008.0,136.0
130.0,1005.0,170.0
157.0,971.0,116.0
188.0,988.0,75.0
268.0,984.0,46.0
253.0,996.0,80.0
254.0,1027.0,27.0
258.0,970.0,29.0
198.0,978.0,71.0
130.0,988.0,82.0
87.0,1019.0,107.0
66.0,992.0,133.0
172.0,960.0,96.0
190.0,981.0,78.0
175.0,979.0,122.0
193.0,1008.0,100.0
189.0,987.0,117.0
183.0,987.0,108.0
149.0,998.0,119.0
146.0,996.0,132.0
168.0,989.0,102.0
165.0,979.0,119.0
152.0,961.0,114.0
162.0,949.0,102.0
143.0,969.0,112.0
122.0,1020.0,121.0
118.0,1043.0,111.0
159.0,1047.0,93.0
190.0,1049.0,26.0
188.0,1033.0,32.0
123.0,1030.0,51.0
118.0,1029.0,58.0
132.0,1026.0,43.0
153.0,1015.0,20.0
139.0,1035.0,68.0
132.0,1027.0,31.0
127.0,1018.0,72.0
101.0,1000.0,59.0
76.0,996.0,40.0
104.0,997.0,32.0
105.0,978.0,41.0
113.0,978.0,40.0
94.0,990.0,45.0
93.0,1005.0,58.0
90.0,997.0,37.0
104.0,1026.0,28.0
77.0,1030.0,45.0
81.0,1023.0,78.0
88.0,982.0,59.0
75.0,909.0,49.0
66.0,980.0,58.0
110.0,1001.0,78.0
130.0,961.0,126.0
97.0,944.0,162.0
96.0,945.0,198.0
68.0,1004.0,104.0
115.0,1075.0,163.0
165.0,1127.0,96.0
216.0,1053.0,70.0
248.0,1021.0,47.0
226.0,987.0,56.0
155.0,975.0,101.0
83.0,954.0,152.0
71.0,1036.0,149.0
114.0,1044.0,91.0
196.0,969.0,34.0
184.0,1006.0,58.0
132.0,1027.0,48.0
100.0,1045.0,43.0
115.0,1020.0,95.0
161.0,1006.0,111.0
126.0,988.0,131.0
86.0,968.0,101.0
66.0,977.0,82.0
69.0,955.0,104.0
77.0,955.0,112.0
91.0,1013.0,111.0
107.0,1047.0,112.0
104.0,1061.0,92.0
108.0,1063.0,75.0
124.0,1010.0,51.0
129.0,1015.0,89.0
89.0,995.0,56.0
99.0,997.0,59.0
111.0,1003.0,60.0
138.0,985.0,48.0
144.0,997.0,52.0
143.0,997.0,51.0
133.0,1006.0,61.0
144.0,998.0,69.0
140.0,1016.0,40.0
138.0,1018.0,52.0
164.0,1034.0,35.0
146.0,1004.0,34.0
161.0,980.0,43.0
147.0,986.0,60.0
111.0,1022.0,84.0
99.0,1042.0,129.0
97.0,1033.0,139.0
121.0,1014.0,119.0
129.0,1025.0,87.0
144.0,1002.0,79.0
117.0,987.0,91.0
131.0,987.0,92.0
132.0,997.0,81.0
107.0,1015.0,91.0
147.0,995.0,68.0
149.0,1011.0,46.0
160.0,1007.0,32.0
184.0,1003.0,43.0
178.0,1009.0,43.0
162.0,1001.0,50.0
146.0,1015.0,39.0
141.0,1001.0,74.0
150.0,1008.0,64.0
141.0,1002.0,41.0
117.0,1015.0,47.0
113.0,1007.0,62.0
131.0,1014.0,51.0
133.0,1017.0,71.0
133.0,997.0,51.0
153.0,996.0,71.0
162.0,976.0,62.0
146.0,978.0,70.0
123.0,977.0,62.0
138.0,992.0,70.0
144.0,996.0,78.0
146.0,1017.0,67.0
183.0,1015.0,56.0
174.0,1004.0,45.0
165.0,1000.0,37.0
167.0,1000.0,63.0
155.0,1008.0,65.0
129.0,1004.0,90.0
123.0,1015.0,92.0
124.0,1016.0,92.0
124.0,1025.0,92.0
133.0,1026.0,101.0
146.0,1033.0,79.0
162.0,1014.0,81.0
167.0,1016.0,49.0
180.0,1014.0,36.0
165.0,994.0,73.0
141.0,977.0,80.0
153.0,990.0,86.0
103.0,982.0,101.0
101.0,999.0,128.0
80.0,1002.0,120.0
84.0,986.0,102.0
21.0,995.0,103.0
119.0,989.0,117.0
100.0,986.0,153.0
95.0,1006.0,142.0
94.0,984.0,138.0
110.0,960.0,68.0
121.0,994.0,86.0
103.0,1016.0,91.0
108.0,1017.0,90.0
118.0,1026.0,78.0
146.0,1025.0,58.0
149.0,1037.0,31.0
159.0,999.0,12.0
123.0,1023.0,51.0
127.0,1023.0,51.0
125.0,1020.0,75.0
140.0,1018.0,58.0
134.0,1023.0,58.0
134.0,1017.0,53.0
105.0,1006.0,71.0
143.0,1017.0,77.0
100.0,1022.0,69.0
122.0,994.0,93.0
104.0,998.0,83.0
192.0,994.0,62.0
193.0,981.0,36.0
104.0,984.0,97.0
143.0,1003.0,67.0
105.0,1006.0,76.0
149.0,999.0,22.0
152.0,1005.0,43.0
145.0,1039.0,35.0
164.0,1031.0,12.0
174.0,983.0,36.0
144.0,968.0,51.0
114.0,987.0,92.0
58.0,986.0,154.0
74.0,981.0,138.0
62.0,1008.0,106.0
129.0,1003.0,77.0
140.0,993.0,88.0
128.0,1003.0,106.0
102.0,993.0,121.0
82.0,979.0,129.0
122.0,987.0,88.0
120.0,996.0,94.0
131.0,1008.0,97.0
142.0,1003.0,90.0
108.0,1007.0,85.0
89.0,997.0,71.0
75.0,997.0,81.0
105.0,997.0,81.0
94.0,1038.0,92.0
110.0,1087.0,106.0
144.0,1094.0,133.0
111.0,1044.0,150.0
68.0,1015.0,170.0
71.0,971.0,131.0
76.0,938.0,133.0
76.0,960.0,104.0
78.0,1002.0,90.0
110.0,1005.0,92.0
130.0,1010.0,87.0
113.0,1025.0,63.0
116.0,1009.0,69.0
96.0,998.0,71.0
105.0,996.0,80.0
95.0,1016.0,71.0
115.0,1006.0,71.0
113.0,1016.0,84.0
103.0,1004.0,102.0
95.0,1024.0,90.0
109.0,1030.0,92.0
114.0,1028.0,95.0
111.0,1009.0,101.0
102.0,1001.0,84.0
109.0,997.0,83.0
94.0,1012.0,73.0
110.0,988.0,77.0
106.0,995.0,89.0
120.0,1008.0,94.0
116.0,1020.0,81.0
114.0,1018.0,82.0
95.0,997.0,71.0
96.0,1015.0,91.0
105.0,986.0,72.0
105.0,1001.0,93.0
104.0,1019.0,78.0
108.0,1019.0,85.0
110.0,990.0,98.0
89.0,1004.0,113.0
104.0,999.0,88.0
97.0,1001.0,81.0
107.0,1001.0,79.0
109.0,994.0,90.0
115.0,1003.0,78.0
136.0,1013.0,67.0
115.0,1017.0,99.0
132.0,998.0,94.0
124.0,997.0,71.0
113.0,1006.0,71.0
105.0,1017.0,69.0
117.0,1011.0,62.0
140.0,1000.0,73.0
146.0,1017.0,87.0
118.0,1016.0,81.0
126.0,1009.0,44.0
99.0,1015.0,80.0
106.0,1016.0,65.0
113.0,1002.0,77.0
122.0,1001.0,66.0
116.0,994.0,69.0
115.0,1004.0,54.0
105.0,1006.0,75.0
114.0,1006.0,92.0
86.0,1006.0,112.0
95.0,997.0,100.0
99.0,1005.0,94.0
122.0,998.0,98.0
91.0,1022.0,81.0
95.0,1035.0,95.0
83.0,1036.0,109.0
64.0,1045.0,123.0
46.0,1013.0,130.0
43.0,994.0,146.0
37.0,996.0,135.0
36.0,1002.0,131.0
47.0,1005.0,134.0
26.0,1013.0,123.0
9.0,1023.0,99.0
35.0,1034.0,52.0
86.0,1035.0,61.0
94.0,1064.0,10.0
86.0,1049.0,31.0
99.0,1014.0,5.0
132.0,1014.0,-3.0
152.0,988.0,-42.0
116.0,997.0,-32.0
93.0,1013.0,-42.0
94.0,982.0,-51.0
100.0,982.0,-88.0
112.0,983.0,-86.0
157.0,963.0,-68.0
180.0,962.0,-58.0
195.0,984.0,-55.0
209.0,1001.0,-80.0
218.0,1034.0,-91.0
247.0,1025.0,-112.0
266.0,1035.0,-68.0
244.0,1024.0,-20.0
212.0,1022.0,-31.0
161.0,989.0,-17.0
156.0,1010.0,-43.0
159.0,1015.0,-61.0
174.0,1002.0,-63.0
191.0,1032.0,-26.0
199.0,1014.0,-28.0
212.0,1016.0,-58.0
199.0,974.0,-42.0
151.0,980.0,-29.0
92.0,987.0,5.0
77.0,1003.0,20.0
67.0,999.0,11.0
86.0,978.0,10.0
114.0,968.0,-2.0
91.0,978.0,-31.0
79.0,979.0,-1.0
81.0,1016.0,35.0
70.0,1032.0,45.0
64.0,1024.0,67.0
12.0,1021.0,77.0
-5.0,1003.0,132.0
13.0,945.0,164.0
-26.0,974.0,218.0
-48.0,995.0,194.0
-19.0,995.0,185.0
41.0,1031.0,148.0
100.0,1043.0,160.0
123.0,1035.0,117.0
133.0,1035.0,121.0
132.0,1036.0,120.0
113.0,1053.0,104.0
98.0,1019.0,135.0
49.0,1022.0,109.0
56.0,1031.0,81.0
84.0,1026.0,71.0
100.0,1012.0,52.0
109.0,995.0,59.0
117.0,992.0,52.0
102.0,1016.0,73.0
84.0,1016.0,92.0
58.0,1031.0,82.0
79.0,1012.0,90.0
103.0,1013.0,92.0
106.0,999.0,93.0
95.0,997.0,71.0
124.0,1006.0,81.0
90.0,1017.0,73.0
80.0,1025.0,102.0
93.0,1023.0,76.0
85.0,1012.0,104.0
66.0,1003.0,84.0
88.0,988.0,67.0
109.0,976.0,75.0
93.0,1003.0,65.0
88.0,1019.0,90.0
103.0,1002.0,61.0
123.0,993.0,84.0
132.0,1018.0,80.0
110.0,1027.0,50.0
87.0,1006.0,79.0
67.0,1006.0,71.0
77.0,998.0,72.0
118.0,1015.0,81.0
143.0,995.0,80.0
132.0,1010.0,69.0
132.0,1015.0,77.0
120.0,1030.0,93.0
130.0,1009.0,72.0
125.0,1004.0,75.0
110.0,1009.0,56.0
117.0,990.0,63.0
109.0,1006.0,71.0
137.0,997.0,80.0
130.0,1010.0,72.0
121.0,1025.0,80.0
134.0,1016.0,63.0
114.0,1016.0,80.0
113.0,1006.0,80.0
95.0,1026.0,60.0
121.0,1009.0,77.0
139.0,989.0,86.0
105.0,1007.0,62.0
96.0,1008.0,85.0
111.0,1028.0,58.0
110.0,997.0,58.0
104.0,991.0,80.0
104.0,993.0,74.0
112.0,982.0,71.0
109.0,995.0,76.0
83.0,1002.0,85.0
94.0,1016.0,61.0
152.0,1006.0,116.0
78.0,1006.0,104.0
106.0,987.0,51.0
113.0,1019.0,72.0
125.0,1021.0,85.0
80.0,1003.0,98.0
98.0,1011.0,49.0
119.0,1025.0,66.0
95.0,1011.0,97.0
122.0,1018.0,84.0
104.0,982.0,86.0
113.0,997.0,89.0
102.0,992.0,74.0
105.0,999.0,101.0
119.0,999.0,78.0
117.0,1011.0,70.0
121.0,1017.0,54.0
143.0,1024.0,41.0
104.0,1015.0,72.0
93.0,998.0,92.0
90.0,1004.0,79.0
116.0,999.0,84.0
117.0,1018.0,93.0
120.0,1015.0,89.0
103.0,1009.0,55.0
101.0,995.0,50.0
102.0,1018.0,83.0
123.0,1021.0,72.0
129.0,1011.0,77.0
130.0,1021.0,88.0
107.0,996.0,95.0
112.0,1015.0,65.0
114.0,988.0,60.0
124.0,1024.0,71.0
133.0,1005.0,81.0
132.0,1007.0,72.0
135.0,1016.0,94.0
126.0,1012.0,74.0
108.0,1008.0,78.0
140.0,1010.0,71.0
108.0,997.0,96.0
124.0,1007.0,119.0
138.0,1003.0,30.0
110.0,985.0,41.0
97.0,1007.0,87.0
106.0,1009.0,85.0
125.0,1013.0,80.0
114.0,1007.0,82.0
115.0,1022.0,72.0
105.0,1017.0,71.0
114.0,1006.0,71.0
106.0,1017.0,74.0
112.0,1013.0,90.0
95.0,1007.0,70.0
121.0,997.0,67.0
101.0,993.0,52.0
93.0,1001.0,78.0
124.0,1006.0,65.0
118.0,1005.0,87.0
113.0,1006.0,75.0
114.0,1005.0,65.0
113.0,1005.0,98.0
121.0,1026.0,69.0
132.0,1016.0,108.0
125.0,1016.0,68.0
114.0,1006.0,60.0
124.0,1006.0,70.0
112.0,1004.0,53.0
107.0,999.0,83.0
113.0,1016.0,80.0
116.0,1000.0,98.0
106.0,999.0,77.0
101.0,1005.0,71.0
115.0,1005.0,93.0
119.0,1004.0,76.0
120.0,1012.0,86.0
113.0,1011.0,65.0
109.0,996.0,72.0
104.0,1009.0,94.0
105.0,1026.0,73.0
112.0,1015.0,71.0
114.0,1034.0,42.0
115.0,1015.0,62.0
120.0,996.0,90.0
88.0,1011.0,59.0
131.0,1017.0,64.0
128.0,987.0,72.0
124.0,1008.0,67.0
121.0,1006.0,66.0
109.0,995.0,80.0
131.0,995.0,41.0
136.0,1001.0,66.0
113.0,1007.0,77.0
121.0,1012.0,69.0
125.0,1002.0,64.0
115.0,1015.0,60.0
123.0,1015.0,61.0
124.0,1007.0,61.0
114.0,997.0,51.0
114.0,1015.0,52.0
103.0,997.0,74.0
97.0,1006.0,80.0
122.0,994.0,83.0
130.0,999.0,74.0
107.0,1011.0,62.0
112.0,1009.0,74.0
129.0,988.0,69.0
110.0,994.0,78.0
115.0,1018.0,82.0
122.0,998.0,75.0
102.0,1017.0,62.0
130.0,1012.0,69.0
117.0,986.0,89.0
96.0,1005.0,93.0
95.0,997.0,71.0
113.0,998.0,91.0
83.0,1006.0,70.0
89.0,1018.0,71.0
93.0,1010.0,76.0
83.0,1011.0,92.0
92.0,1003.0,78.0
87.0,999.0,83.0
77.0,1053.0,77.0
95.0,1014.0,54.0
92.0,1014.0,44.0
105.0,1001.0,92.0
102.0,997.0,59.0
130.0,980.0,64.0
117.0,994.0,82.0
105.0,988.0,62.0
56.0,1007.0,72.0
9.0,1034.0,102.0
27.0,1012.0,92.0
53.0,1010.0,105.0
41.0,1021.0,113.0
58.0,991.0,88.0
115.0,1039.0,55.0
214.0,1036.0,34.0
174.0,1010.0,-19.0
150.0,989.0,20.0
58.0,1011.0,27.0
24.0,1016.0,62.0
71.0,995.0,51.0
91.0,1003.0,53.0
113.0,1032.0,57.0
96.0,1035.0,10.0
105.0,1035.0,41.0
124.0,1014.0,32.0
113.0,1008.0,39.0
115.0,1010.0,7.0
114.0,985.0,28.0
130.0,1002.0,27.0
111.0,1005.0,36.0
116.0,1005.0,17.0
116.0,1006.0,28.0
130.0,999.0,62.0
99.0,1000.0,55.0
75.0,1008.0,47.0
92.0,1003.0,69.0
81.0,1015.0,54.0
121.0,1007.0,43.0
124.0,1023.0,20.0
114.0,1025.0,61.0
86.0,1007.0,41.0
82.0,1024.0,77.0
57.0,1001.0,89.0
82.0,997.0,64.0
86.0,996.0,52.0
84.0,1012.0,61.0
98.0,1007.0,43.0
111.0,1000.0,46.0
77.0,1029.0,56.0
85.0,1001.0,65.0
73.0,1010.0,49.0
71.0,1008.0,68.0
93.0,1014.0,55.0
104.0,1007.0,59.0
105.0,1024.0,61.0
95.0,1025.0,61.0
94.0,1015.0,39.0
76.0,1006.0,33.0
87.0,1018.0,55.0
86.0,1012.0,59.0
99.0,1022.0,49.0
88.0,1015.0,54.0
94.0,1010.0,67.0
107.0,1009.0,67.0
105.0,1016.0,58.0
100.0,1015.0,78.0
87.0,1002.0,106.0
91.0,1001.0,70.0
105.0,994.0,66.0
96.0,1014.0,65.0
113.0,1016.0,31.0
124.0,1006.0,51.0
124.0,1006.0,53.0
112.0,1003.0,68.0
105.0,1000.0,53.0
105.0,1017.0,56.0
122.0,1014.0,63.0
114.0,997.0,69.0
109.0,1013.0,66.0
85.0,1028.0,54.0
94.0,989.0,30.0
88.0,1016.0,81.0
80.0,1003.0,50.0
91.0,1025.0,67.0
121.0,992.0,65.0
99.0,1011.0,42.0
104.0,1007.0,60.0
76.0,1016.0,51.0
89.0,1014.0,42.0
111.0,1007.0,50.0
83.0,1002.0,42.0
90.0,1001.0,53.0
111.0,1029.0,68.0
106.0,1000.0,78.0
97.0,989.0,52.0
103.0,1003.0,53.0
92.0,1031.0,44.0
98.0,1025.0,47.0
87.0,1035.0,47.0
91.0,1006.0,30.0
104.0,1000.0,62.0
97.0,1016.0,83.0
77.0,1016.0,61.0
76.0,1006.0,71.0
85.0,1007.0,50.0
76.0,1013.0,51.0
88.0,997.0,41.0
82.0,1021.0,70.0
78.0,1020.0,57.0
88.0,1015.0,35.0
85.0,1014.0,70.0
90.0,1017.0,45.0
102.0,1008.0,57.0
102.0,1010.0,71.0
75.0,1018.0,53.0
68.0,1007.0,76.0
102.0,1005.0,27.0
104.0,1015.0,29.0
123.0,1016.0,20.0
95.0,1016.0,51.0
96.0,1005.0,61.0
92.0,999.0,58.0
75.0,1027.0,58.0
62.0,1007.0,93.0
65.0,1001.0,63.0
89.0,1017.0,64.0
88.0,1015.0,76.0
94.0,1010.0,56.0
82.0,1008.0,61.0
94.0,1019.0,38.0
93.0,1006.0,58.0
103.0,1013.0,55.0
105.0,1009.0,27.0
90.0,996.0,58.0
67.0,1015.0,62.0
105.0,1006.0,61.0
94.0,1007.0,70.0
98.0,1001.0,63.0
101.0,994.0,79.0
103.0,1021.0,58.0
119.0,995.0,59.0
88.0,1021.0,32.0
80.0,990.0,42.0
66.0,1000.0,72.0
85.0,1020.0,58.0
88.0,1005.0,51.0
106.0,1014.0,43.0
90.0,1014.0,48.0
91.0,1018.0,52.0
105.0,989.0,43.0
105.0,1013.0,40.0
95.0,1025.0,61.0
96.0,1025.0,31.0
102.0,1011.0,56.0
86.0,1001.0,69.0
82.0,1023.0,59.0
84.0,999.0,48.0
104.0,998.0,57.0
102.0,1012.0,54.0
133.0,1008.0,40.0
109.0,1017.0,66.0
104.0,1010.0,66.0
71.0,995.0,53.0
81.0,1024.0,50.0
86.0,1010.0,52.0
102.0,1004.0,42.0
96.0,1016.0,50.0
95.0,1016.0,41.0
115.0,1024.0,32.0
112.0,1007.0,52.0
94.0,1026.0,65.0
97.0,1011.0,66.0
109.0,1003.0,72.0
94.0,994.0,84.0
76.0,1000.0,59.0
96.0,1007.0,48.0
110.0,999.0,32.0
89.0,1004.0,43.0
100.0,1027.0,47.0
92.0,1014.0,39.0
104.0,1025.0,19.0
119.0,1000.0,38.0
69.0,1014.0,60.0
86.0,1016.0,61.0
76.0,1006.0,52.0
76.0,1016.0,73.0
67.0,1014.0,55.0
80.0,1003.0,61.0
88.0,1010.0,75.0
98.0,1011.0,66.0
87.0,1009.0,54.0
78.0,1015.0,36.0
115.0,1022.0,49.0
92.0,1013.0,48.0
105.0,1009.0,73.0
103.0,1018.0,64.0
93.0,1014.0,45.0
96.0,1009.0,48.0
95.0,987.0,62.0
86.0,1006.0,41.0
96.0,996.0,51.0
115.0,987.0,51.0
124.0,987.0,49.0
107.0,1000.0,42.0
97.0,1005.0,54.0
105.0,1007.0,66.0
111.0,1019.0,67.0
128.0,1007.0,65.0
113.0,1016.0,64.0
97.0,1022.0,43.0
95.0,1006.0,66.0
95.0,1005.0,35.0
95.0,1006.0,54.0
87.0,998.0,63.0
94.0,987.0,52.0
114.0,997.0,41.0
104.0,1016.0,71.0
107.0,1004.0,59.0
111.0,1008.0,62.0
93.0,1013.0,46.0
97.0,1007.0,61.0
110.0,1015.0,41.0
108.0,998.0,19.0
88.0,1001.0,61.0
88.0,1005.0,39.0
114.0,1011.0,56.0
122.0,1011.0,51.0
98.0,1002.0,41.0
94.0,1016.0,81.0
103.0,999.0,46.0
113.0,1005.0,50.0
114.0,1016.0,41.0
114.0,1005.0,40.0
123.0,999.0,20.0
99.0,1014.0,59.0
89.0,1011.0,65.0
107.0,1035.0,54.0
102.0,1006.0,58.0
91.0,1009.0,51.0
106.0,1021.0,45.0
105.0,1020.0,54.0
96.0,1015.0,78.0
115.0,1009.0,49.0
106.0,1010.0,37.0
105.0,1025.0,52.0
105.0,1017.0,33.0
105.0,1007.0,48.0
105.0,1006.0,61.0
104.0,1025.0,62.0
85.0,1015.0,70.0
99.0,1015.0,62.0
100.0,1004.0,70.0
102.0,1007.0,59.0
105.0,1004.0,44.0
71.0,1007.0,50.0
101.0,999.0,54.0
99.0,1000.0,38.0
99.0,1006.0,41.0
113.0,1014.0,52.0
113.0,1037.0,66.0
110.0,1017.0,36.0
93.0,1024.0,29.0
123.0,1024.0,58.0
114.0,1025.0,61.0
103.0,1007.0,42.0
81.0,1022.0,71.0
132.0,985.0,33.0
87.0,1013.0,44.0
102.0,1010.0,82.0
84.0,1006.0,49.0
81.0,1004.0,44.0
106.0,1006.0,57.0
112.0,1000.0,65.0
92.0,999.0,81.0
80.0,1015.0,67.0
68.0,1014.0,66.0
67.0,1024.0,66.0
81.0,1024.0,58.0
97.0,1026.0,90.0
67.0,997.0,81.0
143.0,1006.0,71.0
79.0,996.0,74.0
73.0,997.0,105.0
81.0,998.0,98.0
64.0,990.0,95.0
52.0,982.0,103.0
52.0,1014.0,101.0
56.0,1014.0,103.0
70.0,1016.0,98.0
104.0,1018.0,71.0
124.0,1033.0,41.0
115.0,1033.0,116.0
109.0,1050.0,95.0
78.0,1047.0,119.0
102.0,1018.0,67.0
124.0,1016.0,41.0
163.0,1016.0,42.0
170.0,1017.0,69.0
172.0,1022.0,56.0
153.0,1005.0,109.0
118.0,1001.0,97.0
96.0,983.0,108.0
91.0,990.0,112.0
100.0,1005.0,113.0
58.0,1014.0,140.0
99.0,991.0,156.0
78.0,986.0,147.0
79.0,980.0,132.0
74.0,982.0,148.0
65.0,1004.0,146.0
75.0,1006.0,140.0
86.0,1006.0,163.0
76.0,1016.0,153.0
86.0,1014.0,175.0
74.0,993.0,181.0
65.0,988.0,187.0
58.0,999.0,187.0
90.0,1008.0,174.0
105.0,996.0,180.0
110.0,991.0,152.0
104.0,1019.0,168.0
64.0,1020.0,188.0
53.0,1003.0,176.0
38.0,981.0,215.0
53.0,982.0,205.0
80.0,997.0,147.0
130.0,970.0,150.0
106.0,977.0,192.0
66.0,986.0,204.0
47.0,980.0,215.0
48.0,1008.0,225.0
35.0,1004.0,235.0
65.0,1007.0,197.0
129.0,1001.0,179.0
108.0,997.0,184.0
102.0,992.0,159.0
115.0,978.0,165.0
83.0,959.0,203.0
53.0,992.0,230.0
79.0,986.0,215.0
93.0,1011.0,206.0
90.0,1007.0,195.0
58.0,1032.0,183.0
103.0,1017.0,183.0
114.0,1006.0,153.0
114.0,997.0,151.0
103.0,993.0,146.0
109.0,980.0,174.0
108.0,997.0,160.0
99.0,984.0,163.0
131.0,1006.0,167.0
90.0,1019.0,173.0
120.0,1026.0,173.0
161.0,1014.0,142.0
132.0,987.0,176.0
113.0,956.0,195.0
123.0,939.0,208.0
107.0,947.0,222.0
129.0,949.0,243.0
152.0,958.0,225.0
162.0,959.0,234.0
137.0,972.0,223.0
110.0,1006.0,213.0
100.0,995.0,219.0
99.0,994.0,231.0
176.0,991.0,189.0
168.0,1044.0,145.0
276.0,1018.0,116.0
215.0,1002.0,127.0
132.0,1019.0,107.0
109.0,1009.0,108.0
179.0,991.0,101.0
226.0,991.0,86.0
221.0,1014.0,135.0
202.0,1016.0,144.0
182.0,1016.0,132.0
143.0,1015.0,141.0
153.0,1007.0,134.0
163.0,1024.0,162.0
143.0,1000.0,122.0
127.0,1001.0,122.0
128.0,1000.0,180.0
151.0,983.0,163.0
135.0,987.0,134.0
124.0,963.0,194.0
171.0,966.0,191.0
96.0,949.0,182.0
125.0,941.0,187.0
126.0,965.0,199.0
132.0,982.0,140.0
124.0,1013.0,123.0
151.0,1025.0,102.0
153.0,1005.0,132.0
182.0,979.0,111.0
168.0,999.0,124.0
161.0,994.0,136.0
165.0,983.0,133.0
152.0,958.0,98.0
152.0,949.0,118.0
150.0,973.0,129.0
140.0,1011.0,150.0
180.0,958.0,162.0
162.0,844.0,194.0
93.0,836.0,219.0
52.0,919.0,231.0
24.0,1025.0,251.0
33.0,1132.0,239.0
138.0,1132.0,156.0
219.0,1061.0,101.0
228.0,1015.0,70.0
188.0,1029.0,114.0
150.0,1028.0,147.0
192.0,1009.0,162.0
188.0,1058.0,229.0
222.0,1033.0,169.0
187.0,996.0,118.0
195.0,976.0,90.0
184.0,996.0,112.0
212.0,999.0,111.0
219.0,1010.0,107.0
233.0,991.0,91.0
219.0,942.0,116.0
133.0,956.0,141.0
68.0,978.0,123.0
87.0,979.0,133.0
106.0,1007.0,184.0
180.0,1019.0,169.0
238.0,1016.0,135.0
172.0,987.0,126.0
164.0,1007.0,125.0
145.0,996.0,117.0
162.0,1005.0,132.0
153.0,992.0,111.0
158.0,1003.0,87.0
120.0,1009.0,91.0
107.0,1020.0,118.0
110.0,998.0,124.0
117.0,1005.0,120.0
96.0,997.0,141.0
122.0,1015.0,113.0
133.0,997.0,112.0
145.0,1016.0,112.0
150.0,993.0,98.0
158.0,986.0,81.0
149.0,988.0,76.0
114.0,980.0,80.0
135.0,986.0,99.0
122.0,991.0,78.0
142.0,1000.0,104.0
141.0,1017.0,83.0
150.0,1026.0,68.0
148.0,1036.0,62.0
127.0,1040.0,36.0
138.0,1038.0,77.0
162.0,1025.0,55.0
144.0,1025.0,60.0
143.0,1006.0,92.0
130.0,1006.0,90.0
116.0,995.0,85.0
122.0,1001.0,98.0
117.0,1015.0,68.0
121.0,1001.0,89.0
120.0,994.0,114.0
132.0,999.0,162.0
122.0,985.0,173.0
112.0,985.0,175.0
81.0,1004.0,165.0
99.0,1015.0,160.0
75.0,1049.0,133.0
115.0,1034.0,128.0
149.0,972.0,91.0
171.0,967.0,160.0
133.0,959.0,153.0
132.0,950.0,185.0
100.0,958.0,195.0
83.0,946.0,213.0
36.0,954.0,188.0
92.0,986.0,196.0
131.0,996.0,192.0
70.0,999.0,188.0
84.0,1008.0,158.0
90.0,1003.0,160.0
100.0,1005.0,152.0
121.0,976.0,136.0
104.0,1001.0,154.0
85.0,990.0,135.0
86.0,995.0,124.0
86.0,1005.0,83.0
115.0,1025.0,71.0
121.0,1005.0,71.0
114.0,1032.0,72.0
170.0,1061.0,81.0
142.0,1035.0,64.0
163.0,991.0,52.0
116.0,1004.0,82.0
127.0,1031.0,66.0
153.0,989.0,50.0
170.0,1019.0,53.0
174.0,1010.0,72.0
188.0,1003.0,18.0
161.0,970.0,34.0
167.0,984.0,54.0
163.0,1025.0,110.0
247.0,1101.0,54.0
144.0,948.0,112.0
250.0,973.0,75.0
173.0,996.0,70.0
98.0,1010.0,110.0
81.0,1013.0,107.0
143.0,1002.0,118.0
171.0,1013.0,80.0
191.0,1022.0,65.0
144.0,1014.0,66.0
148.0,1007.0,65.0
162.0,986.0,70.0
140.0,989.0,96.0
165.0,978.0,124.0
160.0,985.0,143.0
85.0,986.0,141.0
56.0,1005.0,153.0
86.0,987.0,142.0
84.0,989.0,154.0
44.0,1003.0,162.0
93.0,987.0,117.0
244.0,1018.0,70.0
193.0,1079.0,40.0
208.0,1043.0,-13.0
279.0,1008.0,40.0
185.0,1020.0,34.0
61.0,1004.0,63.0
-12.0,1035.0,50.0
94.0,1048.0,5.0
205.0,1014.0,-8.0
230.0,997.0,-12.0
196.0,965.0,24.0
118.0,930.0,61.0
57.0,949.0,41.0
60.0,940.0,61.0
110.0,961.0,38.0
108.0,999.0,32.0
102.0,1079.0,27.0
161.0,1096.0,2.0
175.0,1056.0,12.0
103.0,1025.0,50.0
9.0,1004.0,21.0
-15.0,995.0,19.0
-20.0,991.0,35.0
26.0,980.0,27.0
46.0,958.0,54.0
65.0,929.0,57.0
73.0,970.0,21.0
113.0,1040.0,40.0
95.0,1139.0,51.0
125.0,1153.0,82.0
122.0,1051.0,107.0
125.0,977.0,144.0
104.0,931.0,124.0
64.0,924.0,96.0
27.0,968.0,90.0
53.0,1022.0,49.0
119.0,1012.0,70.0
116.0,1014.0,101.0
125.0,1031.0,58.0
141.0,1042.0,32.0
155.0,1030.0,6.0
172.0,1009.0,36.0
146.0,973.0,42.0
125.0,966.0,32.0
114.0,997.0,10.0
124.0,1007.0,22.0
115.0,1038.0,39.0
140.0,1055.0,6.0
178.0,1062.0,19.0
172.0,1027.0,41.0
150.0,987.0,32.0
146.0,970.0,62.0
131.0,974.0,22.0
155.0,970.0,37.0
131.0,982.0,58.0
125.0,1012.0,26.0
115.0,1023.0,42.0
123.0,1024.0,39.0
122.0,1019.0,51.0
151.0,979.0,32.0
124.0,997.0,41.0
133.0,1006.0,51.0
134.0,1016.0,49.0
141.0,1016.0,42.0
136.0,1012.0,51.0
138.0,1007.0,38.0
126.0,999.0,45.0
129.0,1024.0,56.0
133.0,1017.0,59.0
131.0,1026.0,42.0
107.0,1030.0,53.0
120.0,1017.0,58.0
108.0,1010.0,53.0
147.0,968.0,76.0
144.0,977.0,24.0
151.0,986.0,48.0
143.0,1006.0,41.0
163.0,996.0,32.0
159.0,998.0,43.0
141.0,1007.0,77.0
148.0,1002.0,59.0
161.0,998.0,50.0
148.0,1004.0,67.0
138.0,994.0,53.0
133.0,1000.0,58.0
135.0,1015.0,52.0
160.0,1028.0,41.0
142.0,1016.0,58.0
132.0,1010.0,45.0
132.0,995.0,43.0
150.0,1030.0,12.0
134.0,1027.0,66.0
143.0,1006.0,61.0
142.0,1005.0,42.0
131.0,997.0,52.0
126.0,1008.0,63.0
146.0,1014.0,55.0
138.0,1002.0,41.0
134.0,1010.0,40.0
131.0,1014.0,69.0
139.0,1021.0,61.0
142.0,1019.0,24.0
149.0,1011.0,67.0
147.0,989.0,57.0
142.0,989.0,43.0
129.0,975.0,46.0
143.0,1020.0,96.0
191.0,1008.0,85.0
114.0,1006.0,41.0
135.0,996.0,51.0
163.0,997.0,42.0
143.0,998.0,65.0
117.0,1002.0,54.0
130.0,986.0,59.0
118.0,1015.0,51.0
151.0,1008.0,76.0
134.0,1012.0,88.0
128.0,1008.0,51.0
98.0,1012.0,43.0
137.0,1009.0,61.0
121.0,1012.0,60.0
127.0,1010.0,48.0
142.0,988.0,61.0
152.0,995.0,52.0
143.0,1016.0,20.0
151.0,997.0,43.0
146.0,1008.0,70.0
171.0,1014.0,33.0
163.0,1004.0,25.0
165.0,1009.0,41.0
123.0,1013.0,48.0
146.0,1006.0,59.0
150.0,1023.0,53.0
157.0,1018.0,60.0
136.0,1020.0,40.0
142.0,1022.0,55.0
132.0,993.0,58.0
171.0,984.0,32.0
176.0,997.0,56.0
153.0,996.0,71.0
133.0,1025.0,61.0
125.0,1004.0,62.0
132.0,999.0,58.0
125.0,1003.0,57.0
135.0,985.0,63.0
146.0,1003.0,47.0
135.0,998.0,53.0
126.0,987.0,60.0
133.0,1003.0,86.0
132.0,1004.0,56.0
110.0,1011.0,76.0
144.0,1018.0,47.0
137.0,1001.0,101.0
142.0,995.0,66.0
110.0,1005.0,88.0
121.0,1006.0,55.0
133.0,1006.0,51.0
133.0,1017.0,62.0
135.0,1022.0,83.0
152.0,1009.0,106.0
139.0,1020.0,88.0
131.0,992.0,52.0
123.0,997.0,54.0
125.0,1001.0,51.0
123.0,999.0,66.0
132.0,1011.0,55.0
150.0,1018.0,84.0
118.0,994.0,72.0
134.0,1004.0,84.0
138.0,1006.0,98.0
130.0,998.0,70.0
134.0,996.0,119.0
124.0,1006.0,93.0
151.0,997.0,93.0
133.0,1006.0,90.0
143.0,1006.0,78.0
134.0,1003.0,59.0
156.0,999.0,82.0
133.0,1001.0,104.0
143.0,981.0,103.0
147.0,997.0,94.0
148.0,1004.0,72.0
147.0,985.0,76.0
143.0,1001.0,90.0
141.0,994.0,85.0
152.0,983.0,72.0
135.0,997.0,79.0
142.0,987.0,92.0
143.0,1006.0,92.0
152.0,996.0,91.0
152.0,998.0,82.0
164.0,993.0,93.0
158.0,993.0,90.0
141.0,1016.0,75.0
160.0,999.0,77.0
136.0,995.0,97.0
152.0,1001.0,102.0
136.0,998.0,74.0
128.0,984.0,91.0
160.0,1022.0,96.0
113.0,1004.0,105.0
132.0,1000.0,107.0
116.0,1008.0,107.0
131.0,996.0,141.0
124.0,1006.0,123.0
124.0,978.0,103.0
103.0,1011.0,123.0
121.0,1033.0,122.0
141.0,1026.0,150.0
134.0,1035.0,106.0
149.0,1010.0,85.0
170.0,961.0,96.0
159.0,972.0,56.0
165.0,987.0,49.0
186.0,1001.0,63.0
169.0,1025.0,74.0
140.0,1033.0,56.0
130.0,1064.0,76.0
142.0,1030.0,117.0
134.0,1024.0,114.0
114.0,998.0,112.0
134.0,958.0,101.0
139.0,950.0,69.0
89.0,985.0,62.0
77.0,1019.0,59.0
93.0,1027.0,64.0
123.0,1050.0,34.0
134.0,1027.0,38.0
105.0,999.0,71.0
78.0,994.0,42.0
71.0,1008.0,67.0
70.0,1024.0,73.0
80.0,1071.0,111.0
66.0,1053.0,133.0
91.0,959.0,147.0
88.0,905.0,174.0
49.0,892.0,113.0
31.0,941.0,91.0
103.0,937.0,84.0
166.0,909.0,128.0
150.0,950.0,161.0
100.0,1069.0,176.0
145.0,1048.0,95.0
159.0,1045.0,116.0
183.0,1107.0,132.0
213.0,1073.0,116.0
161.0,1010.0,181.0
71.0,1020.0,179.0
119.0,956.0,124.0
152.0,901.0,101.0
108.0,902.0,111.0
97.0,942.0,112.0
58.0,1060.0,122.0
91.0,1108.0,90.0
261.0,1021.0,61.0
270.0,1056.0,76.0
39.0,1103.0,124.0
-45.0,1078.0,156.0
9.0,1013.0,173.0
49.0,980.0,194.0
30.0,971.0,172.0
0.0,951.0,166.0
-37.0,983.0,207.0
-70.0,997.0,166.0
-55.0,1019.0,166.0
6.0,1049.0,153.0
99.0,1009.0,107.0
88.0,1015.0,81.0
86.0,1006.0,111.0
77.0,1016.0,101.0
106.0,1014.0,91.0
106.0,995.0,81.0
127.0,1000.0,95.0
92.0,1018.0,82.0
133.0,996.0,41.0
150.0,1027.0,69.0
178.0,1025.0,71.0
210.0,1012.0,63.0
174.0,1016.0,36.0
202.0,999.0,26.0
148.0,980.0,66.0
120.0,998.0,87.0
144.0,1007.0,102.0
99.0,1006.0,110.0
104.0,987.0,122.0
74.0,1007.0,143.0
19.0,1003.0,171.0
30.0,977.0,154.0
28.0,990.0,176.0
49.0,998.0,173.0
99.0,1011.0,184.0
58.0,1026.0,149.0
34.0,1001.0,167.0
42.0,1007.0,138.0
35.0,1011.0,165.0
95.0,1005.0,158.0
107.0,993.0,109.0
92.0,983.0,127.0
54.0,997.0,159.0
30.0,987.0,145.0
47.0,1005.0,132.0
87.0,1025.0,121.0
128.0,1025.0,112.0
137.0,1009.0,95.0
90.0,990.0,48.0
119.0,1004.0,102.0
159.0,1002.0,106.0
139.0,1027.0,68.0
126.0,1006.0,88.0
132.0,1004.0,95.0
112.0,982.0,77.0
101.0,981.0,78.0
125.0,994.0,73.0
142.0,1004.0,80.0
143.0,999.0,64.0
127.0,995.0,69.0
114.0,1015.0,81.0
124.0,1006.0,80.0
126.0,1006.0,62.0
144.0,1004.0,67.0
143.0,1009.0,56.0
140.0,1014.0,79.0
137.0,1020.0,58.0
156.0,1017.0,54.0
148.0,1004.0,46.0
131.0,1001.0,65.0
102.0,995.0,64.0
116.0,995.0,79.0
108.0,1004.0,89.0
147.0,998.0,79.0
129.0,1004.0,66.0
123.0,999.0,101.0
114.0,996.0,72.0
133.0,996.0,71.0
132.0,989.0,84.0
133.0,1005.0,97.0
132.0,1010.0,59.0
118.0,1019.0,90.0
105.0,995.0,87.0
114.0,1023.0,79.0
102.0,1005.0,66.0
134.0,1011.0,88.0
128.0,983.0,93.0
108.0,995.0,36.0
129.0,1001.0,57.0
141.0,1001.0,77.0
136.0,1007.0,43.0
131.0,1014.0,58.0
143.0,1007.0,62.0
124.0,987.0,61.0
143.0,1006.0,69.0
131.0,994.0,53.0
134.0,989.0,74.0
131.0,1010.0,85.0
135.0,1015.0,89.0
128.0,1016.0,84.0
127.0,1010.0,88.0
132.0,1004.0,81.0
114.0,1009.0,70.0
123.0,1020.0,58.0
121.0,998.0,62.0
134.0,1011.0,60.0
108.0,1001.0,68.0
129.0,995.0,90.0
125.0,1006.0,92.0
114.0,997.0,92.0
122.0,1008.0,69.0
107.0,1025.0,65.0
125.0,1010.0,77.0
112.0,998.0,48.0
132.0,1022.0,69.0
125.0,1003.0,64.0
113.0,1006.0,49.0
113.0,1006.0,81.0
120.0,999.0,83.0
120.0,1006.0,61.0
105.0,1006.0,67.0
111.0,996.0,80.0
115.0,1019.0,73.0
113.0,1026.0,62.0
124.0,1025.0,61.0
114.0,1025.0,71.0
124.0,1014.0,72.0
113.0,995.0,93.0
115.0,999.0,76.0
114.0,990.0,75.0
131.0,980.0,76.0
143.0,1001.0,55.0
121.0,994.0,50.0
118.0,1021.0,56.0
126.0,1007.0,58.0
119.0,1004.0,42.0
105.0,1025.0,48.0
119.0,1011.0,52.0
126.0,995.0,57.0
115.0,1014.0,71.0
96.0,1006.0,61.0
95.0,1025.0,92.0
104.0,1014.0,80.0
86.0,1007.0,98.0
110.0,1003.0,90.0
108.0,1011.0,70.0
91.0,1008.0,102.0
64.0,1001.0,96.0
66.0,1015.0,90.0
73.0,998.0,101.0
70.0,996.0,111.0
77.0,998.0,85.0
82.0,987.0,89.0
93.0,995.0,70.0
111.0,996.0,73.0
99.0,1014.0,61.0
68.0,1016.0,61.0
67.0,1035.0,61.0
47.0,1044.0,80.0
39.0,1041.0,47.0
79.0,1026.0,29.0
131.0,1033.0,17.0
131.0,1025.0,5.0
120.0,1034.0,-17.0
135.0,1021.0,-18.0
137.0,1024.0,-26.0
147.0,997.0,-36.0
171.0,987.0,-38.0
171.0,1013.0,30.0
165.0,1008.0,20.0
162.0,1005.0,7.0
146.0,1006.0,29.0
124.0,1006.0,41.0
143.0,987.0,31.0
152.0,987.0,50.0
151.0,985.0,31.0
141.0,976.0,42.0
146.0,981.0,26.0
151.0,1002.0,20.0
154.0,1004.0,42.0
146.0,1007.0,49.0
146.0,1000.0,64.0
128.0,997.0,59.0
141.0,989.0,67.0
150.0,992.0,76.0
134.0,998.0,38.0
125.0,995.0,68.0
131.0,1005.0,54.0
133.0,998.0,60.0
124.0,997.0,61.0
134.0,1005.0,73.0
130.0,996.0,79.0
114.0,1010.0,59.0
126.0,1013.0,64.0
125.0,1020.0,54.0
154.0,1000.0,42.0
114.0,1000.0,56.0
91.0,1027.0,69.0
103.0,1009.0,91.0
100.0,1025.0,84.0
133.0,1021.0,81.0
120.0,1028.0,74.0
91.0,1014.0,77.0
75.0,1034.0,101.0
103.0,999.0,102.0
105.0,987.0,102.0
86.0,979.0,70.0
95.0,997.0,84.0
85.0,999.0,88.0
102.0,1019.0,66.0
133.0,1025.0,46.0
155.0,1003.0,63.0
131.0,1009.0,83.0
146.0,1018.0,81.0
112.0,1002.0,76.0
113.0,1001.0,70.0
141.0,999.0,70.0
122.0,1009.0,86.0
126.0,997.0,94.0
114.0,998.0,74.0
124.0,987.0,61.0
114.0,1006.0,61.0
133.0,1006.0,63.0
123.0,1018.0,66.0
125.0,1010.0,47.0
123.0,999.0,83.0
107.0,1002.0,70.0
96.0,999.0,59.0
107.0,1002.0,32.0
103.0,996.0,83.0
110.0,992.0,59.0
120.0,1017.0,63.0
125.0,1012.0,67.0
123.0,1011.0,59.0
125.0,1017.0,69.0
114.0,1016.0,89.0
114.0,1007.0,83.0
114.0,997.0,61.0
122.0,998.0,81.0
108.0,1015.0,55.0
133.0,1007.0,47.0
109.0,1013.0,70.0
103.0,1009.0,63.0
95.0,1026.0,86.0
109.0,1008.0,80.0
94.0,1005.0,108.0
87.0,1006.0,100.0
110.0,1002.0,92.0
109.0,1020.0,84.0
103.0,1012.0,75.0
120.0,1002.0,53.0
126.0,1016.0,68.0
114.0,1006.0,72.0
124.0,1025.0,71.0
105.0,1023.0,60.0
126.0,995.0,62.0
122.0,998.0,58.0
112.0,991.0,68.0
121.0,977.0,75.0
127.0,1011.0,67.0
98.0,1019.0,98.0
115.0,1000.0,62.0
105.0,1010.0,82.0
114.0,995.0,86.0
99.0,1012.0,82.0
107.0,1008.0,65.0
110.0,1013.0,69.0
102.0,1008.0,54.0
115.0,1005.0,68.0
105.0,1006.0,81.0
132.0,1016.0,51.0
104.0,1016.0,61.0
115.0,1027.0,63.0
101.0,1016.0,68.0
110.0,981.0,51.0
113.0,1011.0,84.0
116.0,1021.0,85.0
104.0,1015.0,69.0
101.0,1010.0,95.0
122.0,1004.0,72.0
94.0,1004.0,90.0
118.0,1013.0,74.0
117.0,1009.0,89.0
114.0,1004.0,65.0
114.0,1007.0,79.0
133.0,997.0,81.0
113.0,1015.0,80.0
114.0,1006.0,59.0
102.0,1016.0,63.0
113.0,1018.0,57.0
133.0,1020.0,53.0
119.0,1005.0,64.0
112.0,1015.0,56.0
117.0,1001.0,54.0
101.0,1010.0,64.0
101.0,995.0,62.0
108.0,1011.0,81.0
139.0,1008.0,34.0
121.0,1005.0,64.0
121.0,1005.0,71.0
116.0,1016.0,91.0
95.0,997.0,61.0
115.0,997.0,81.0
125.0,1000.0,58.0
119.0,1025.0,51.0
109.0,1015.0,56.0
123.0,1025.0,89.0
115.0,1009.0,84.0
104.0,1003.0,45.0
104.0,992.0,60.0
113.0,1008.0,82.0
130.0,1012.0,59.0
108.0,995.0,75.0
98.0,1010.0,84.0
107.0,1024.0,71.0
105.0,1018.0,88.0
96.0,1006.0,102.0
95.0,1006.0,81.0
95.0,1007.0,72.0
107.0,1023.0,81.0
111.0,1003.0,99.0
74.0,994.0,119.0
31.0,1019.0,101.0
50.0,1021.0,118.0
71.0,1001.0,124.0
83.0,1012.0,112.0
80.0,1012.0,101.0
83.0,997.0,105.0
70.0,991.0,130.0
44.0,990.0,116.0
65.0,994.0,120.0
66.0,996.0,106.0
85.0,1015.0,101.0
76.0,997.0,102.0
76.0,998.0,102.0
76.0,1018.0,89.0
102.0,1022.0,69.0
123.0,1006.0,59.0
98.0,1031.0,49.0
99.0,1008.0,74.0
107.0,986.0,91.0
124.0,1000.0,72.0
131.0,992.0,43.0
123.0,1005.0,37.0
152.0,997.0,71.0
136.0,1003.0,55.0
142.0,1005.0,64.0
126.0,1022.0,82.0
132.0,1009.0,90.0
124.0,987.0,102.0
124.0,996.0,62.0
103.0,990.0,90.0
96.0,1016.0,60.0
94.0,1022.0,71.0
99.0,1043.0,62.0
124.0,1054.0,88.0
152.0,1064.0,98.0
142.0,1034.0,114.0
123.0,991.0,86.0
68.0,939.0,78.0
75.0,944.0,53.0
81.0,974.0,66.0
81.0,1004.0,64.0
125.0,1020.0,68.0
163.0,1036.0,81.0
96.0,1006.0,92.0
95.0,1016.0,80.0
95.0,992.0,83.0
91.0,982.0,90.0
80.0,1008.0,96.0
111.0,1004.0,79.0
117.0,1008.0,77.0
121.0,1018.0,122.0
114.0,1007.0,49.0
108.0,1009.0,78.0
111.0,985.0,46.0
107.0,994.0,58.0
118.0,1008.0,96.0
118.0,1011.0,81.0
120.0,1010.0,90.0
117.0,996.0,93.0
86.0,1025.0,81.0
113.0,996.0,110.0
86.0,1009.0,72.0
107.0,1012.0,104.0
90.0,1009.0,74.0
102.0,1012.0,88.0
113.0,1009.0,67.0
98.0,1026.0,59.0
99.0,1003.0,93.0
105.0,995.0,79.0
109.0,997.0,73.0
116.0,995.0,97.0
107.0,1003.0,98.0
104.0,1006.0,74.0
105.0,1005.0,79.0
105.0,1015.0,73.0
114.0,1025.0,61.0
124.0,1005.0,80.0
111.0,998.0,62.0
110.0,1004.0,81.0
118.0,996.0,70.0
95.0,996.0,69.0
104.0,1001.0,64.0
96.0,1019.0,89.0
102.0,1008.0,92.0
74.0,1006.0,87.0
89.0,998.0,84.0
94.0,1002.0,98.0
108.0,1000.0,79.0
111.0,1000.0,93.0
86.0,1024.0,65.0
95.0,1007.0,70.0
86.0,1016.0,71.0
104.0,1015.0,102.0
75.0,1018.0,76.0
89.0,1032.0,67.0
95.0,998.0,108.0
93.0,1004.0,91.0
85.0,1012.0,69.0
85.0,1005.0,71.0
91.0,1002.0,69.0
93.0,1018.0,50.0
107.0,1013.0,71.0
114.0,1013.0,70.0
116.0,1030.0,64.0
97.0,1000.0,82.0
110.0,1003.0,65.0
123.0,1015.0,59.0
143.0,1016.0,81.0
123.0,1025.0,40.0
106.0,1013.0,43.0
127.0,1008.0,52.0
132.0,998.0,63.0
135.0,996.0,78.0
121.0,1006.0,107.0
78.0,977.0,75.0
146.0,1009.0,68.0
150.0,1025.0,78.0
117.0,1032.0,40.0
122.0,1016.0,65.0
115.0,1014.0,52.0
143.0,1017.0,36.0
126.0,1006.0,75.0
132.0,1007.0,83.0
115.0,978.0,61.0
116.0,987.0,70.0
139.0,1000.0,66.0
95.0,1022.0,111.0
132.0,994.0,76.0
125.0,1007.0,66.0
113.0,991.0,52.0
116.0,1003.0,57.0
132.0,997.0,66.0
123.0,986.0,101.0
111.0,1013.0,72.0
125.0,1011.0,51.0
139.0,1033.0,64.0
107.0,1018.0,74.0
128.0,1024.0,61.0
126.0,999.0,71.0
114.0,1006.0,61.0
114.0,997.0,71.0
123.0,1016.0,59.0
105.0,1017.0,54.0
129.0,1020.0,71.0
115.0,993.0,57.0
109.0,996.0,68.0
112.0,1004.0,65.0
123.0,1009.0,66.0
107.0,993.0,66.0
103.0,1000.0,66.0
117.0,1021.0,66.0
114.0,1011.0,65.0
106.0,1005.0,82.0
113.0,998.0,64.0
106.0,1004.0,60.0
105.0,1006.0,71.0
105.0,997.0,62.0
114.0,1008.0,81.0
105.0,1011.0,68.0
117.0,1002.0,62.0
110.0,1023.0,91.0
123.0,1002.0,76.0
109.0,1020.0,56.0
107.0,1011.0,71.0
119.0,1020.0,81.0
104.0,1004.0,55.0
129.0,1017.0,56.0
134.0,991.0,75.0
119.0,1007.0,76.0
105.0,1018.0,75.0
113.0,1015.0,60.0
124.0,1006.0,61.0
114.0,1016.0,52.0
125.0,1014.0,69.0
124.0,995.0,41.0
136.0,998.0,82.0
110.0,992.0,97.0
88.0,988.0,60.0
89.0,997.0,73.0
102.0,996.0,71.0
127.0,996.0,66.0
129.0,1001.0,68.0
123.0,1007.0,80.0
111.0,998.0,28.0
115.0,1001.0,64.0
107.0,1031.0,87.0
95.0,1020.0,61.0
113.0,997.0,61.0
95.0,1016.0,81.0
108.0,1006.0,68.0
121.0,1015.0,54.0
91.0,1006.0,69.0
103.0,1017.0,50.0
110.0,999.0,100.0
96.0,1016.0,79.0
127.0,1023.0,55.0
105.0,1029.0,75.0
102.0,1004.0,66.0
96.0,1009.0,50.0
110.0,1009.0,80.0
99.0,1013.0,82.0
109.0,1008.0,65.0
108.0,1006.0,94.0
95.0,1006.0,42.0
125.0,1024.0,61.0
130.0,997.0,62.0
105.0,1018.0,82.0
114.0,998.0,66.0
118.0,991.0,61.0
133.0,1005.0,46.0
122.0,995.0,60.0
122.0,1017.0,52.0
110.0,1020.0,61.0
123.0,1010.0,43.0
108.0,1001.0,70.0
87.0,1027.0,67.0
122.0,1029.0,76.0
107.0,1015.0,65.0
114.0,1016.0,78.0
87.0,1016.0,72.0
95.0,1005.0,72.0
106.0,978.0,79.0
113.0,1001.0,73.0
119.0,1001.0,76.0
145.0,1005.0,49.0
129.0,1040.0,67.0
136.0,1028.0,74.0
124.0,1024.0,82.0
108.0,1021.0,77.0
100.0,1007.0,65.0
88.0,1011.0,99.0
81.0,1017.0,120.0
60.0,1015.0,145.0
64.0,995.0,156.0
60.0,974.0,142.0
47.0,1024.0,142.0
86.0,978.0,143.0
75.0,1008.0,172.0
76.0,1017.0,138.0
76.0,1035.0,133.0
73.0,1006.0,115.0
71.0,1000.0,118.0
93.0,1022.0,115.0
121.0,1016.0,100.0
153.0,1003.0,105.0
147.0,1002.0,127.0
123.0,992.0,116.0
83.0,995.0,96.0
99.0,965.0,119.0
74.0,1001.0,130.0
137.0,989.0,134.0
125.0,1005.0,103.0
133.0,996.0,102.0
124.0,977.0,80.0
121.0,980.0,110.0
107.0,1000.0,138.0
106.0,1022.0,107.0
78.0,1030.0,114.0
131.0,994.0,70.0
128.0,1008.0,58.0
142.0,1009.0,73.0
139.0,1015.0,75.0
156.0,1018.0,84.0
112.0,990.0,73.0
95.0,1022.0,63.0
131.0,994.0,68.0
132.0,993.0,73.0
143.0,998.0,70.0
143.0,968.0,112.0
140.0,997.0,103.0
102.0,1001.0,136.0
96.0,1051.0,126.0
124.0,1044.0,128.0
120.0,1006.0,124.0
81.0,994.0,118.0
81.0,978.0,131.0
56.0,989.0,122.0
34.0,989.0,147.0
50.0,1002.0,141.0
127.0,1025.0,79.0
161.0,1023.0,85.0
162.0,1018.0,86.0
163.0,1006.0,71.0
135.0,1015.0,71.0
95.0,1035.0,93.0
55.0,1064.0,120.0
63.0,1061.0,76.0
98.0,1050.0,46.0
122.0,1029.0,31.0
126.0,1009.0,26.0
119.0,991.0,22.0
106.0,990.0,7.0
65.0,1022.0,16.0
68.0,1006.0,23.0
72.0,1010.0,6.0
76.0,1025.0,11.0
77.0,997.0,17.0
67.0,1005.0,13.0
76.0,990.0,9.0
50.0,960.0,20.0
19.0,949.0,10.0
-20.0,1022.0,0.0
-3.0,1061.0,14.0
43.0,1070.0,13.0
45.0,1086.0,-8.0
34.0,1061.0,12.0
8.0,1070.0,-7.0
4.0,1043.0,-11.0
9.0,1018.0,2.0
17.0,980.0,32.0
4.0,978.0,21.0
-28.0,977.0,33.0
-11.0,966.0,51.0
21.0,958.0,58.0
-32.0,1077.0,46.0
13.0,1104.0,48.0
105.0,1016.0,153.0
41.0,984.0,141.0
-32.0,961.0,124.0
-21.0,989.0,56.0
33.0,991.0,77.0
77.0,1035.0,68.0
86.0,981.0,93.0
83.0,909.0,94.0
43.0,906.0,49.0
45.0,939.0,57.0
89.0,962.0,71.0
120.0,1062.0,43.0
206.0,1112.0,41.0
215.0,1110.0,54.0
152.0,1111.0,115.0
78.0,1120.0,124.0
95.0,1082.0,71.0
136.0,1000.0,75.0
170.0,947.0,125.0
134.0,933.0,134.0
95.0,919.0,137.0
25.0,1037.0,84.0
11.0,1043.0,31.0
91.0,874.0,-12.0
97.0,833.0,-7.0
16.0,1042.0,-67.0
107.0,1192.0,-167.0
274.0,1219.0,-156.0
201.0,1215.0,-29.0
99.0,1146.0,-8.0
10.0,1052.0,32.0
-37.0,1008.0,62.0
-38.0,940.0,51.0
-46.0,923.0,80.0
23.0,938.0,61.0
99.0,931.0,52.0
62.0,955.0,-6.0
60.0,984.0,39.0
83.0,941.0,39.0
35.0,943.0,20.0
-6.0,1005.0,42.0
8.0,1044.0,54.0
63.0,1092.0,51.0
121.0,1085.0,93.0
91.0,1055.0,97.0
38.0,1011.0,91.0
-7.0,988.0,83.0
-10.0,1004.0,81.0
-29.0,1025.0,51.0
22.0,1025.0,-1.0
52.0,1024.0,-13.0
90.0,1042.0,-32.0
81.0,1073.0,-32.0
97.0,1044.0,-44.0
110.0,1048.0,-33.0
91.0,1029.0,7.0
94.0,1015.0,-20.0
83.0,1005.0,-90.0
128.0,993.0,-82.0
146.0,1002.0,-85.0
153.0,1008.0,-51.0
188.0,989.0,-52.0
182.0,987.0,-66.0
198.0,986.0,-11.0
228.0,987.0,-61.0
258.0,970.0,-71.0
254.0,1006.0,-70.0
220.0,997.0,-79.0
168.0,1004.0,-122.0
107.0,999.0,-33.0
106.0,1016.0,70.0
120.0,1006.0,117.0
91.0,1041.0,134.0
65.0,1027.0,100.0
120.0,1008.0,99.0
99.0,992.0,99.0
62.0,991.0,109.0
82.0,986.0,43.0
104.0,964.0,20.0
122.0,988.0,-27.0
152.0,1006.0,-31.0
107.0,1176.0,11.0
174.0,1008.0,62.0
126.0,907.0,165.0
37.0,974.0,144.0
-12.0,992.0,79.0
44.0,980.0,29.0
114.0,1026.0,0.0
150.0,1046.0,15.0
127.0,1042.0,40.0
95.0,1042.0,78.0
77.0,1013.0,72.0
76.0,998.0,27.0
70.0,1001.0,27.0
65.0,1032.0,32.0
76.0,1035.0,21.0
76.0,1054.0,20.0
113.0,1032.0,42.0
62.0,995.0,52.0
34.0,998.0,74.0
20.0,977.0,52.0
29.0,978.0,83.0
58.0,1006.0,98.0
97.0,995.0,56.0
65.0,993.0,49.0
98.0,1010.0,36.0
104.0,1001.0,48.0
142.0,1010.0,13.0
113.0,996.0,35.0
119.0,964.0,2.0
109.0,954.0,27.0
112.0,1021.0,22.0
133.0,1025.0,20.0
153.0,1062.0,-1.0
162.0,1033.0,27.0
145.0,1031.0,45.0
78.0,974.0,5.0
51.0,975.0,-4.0
87.0,984.0,-5.0
80.0,980.0,15.0
103.0,1011.0,34.0
109.0,1007.0,51.0
103.0,1021.0,30.0
70.0,1040.0,44.0
73.0,1024.0,60.0
17.0,1034.0,53.0
64.0,1019.0,58.0
79.0,1015.0,91.0
48.0,1035.0,71.0
56.0,1025.0,52.0
37.0,1034.0,84.0
39.0,1011.0,70.0
52.0,1009.0,13.0
54.0,1028.0,14.0
68.0,1021.0,43.0
82.0,1053.0,44.0
64.0,1042.0,56.0
62.0,1032.0,68.0
23.0,1036.0,67.0
3.0,1016.0,51.0
45.0,996.0,2.0
68.0,982.0,2.0
66.0,1005.0,-34.0
84.0,1014.0,-70.0
105.0,1054.0,-61.0
114.0,1054.0,-40.0
137.0,1054.0,-47.0
147.0,1039.0,-78.0
124.0,1022.0,-51.0
132.0,1013.0,-76.0
123.0,1022.0,-67.0
121.0,1032.0,-50.0
142.0,1000.0,-31.0
161.0,1003.0,-73.0
153.0,999.0,-38.0
168.0,1002.0,-16.0
151.0,1005.0,-15.0
162.0,1013.0,-1.0
160.0,1008.0,0.0
189.0,997.0,8.0
163.0,997.0,31.0
152.0,977.0,33.0
152.0,956.0,59.0
165.0,940.0,29.0
154.0,969.0,29.0
155.0,997.0,20.0
231.0,961.0,12.0
230.0,935.0,11.0
234.0,945.0,54.0
200.0,953.0,53.0
179.0,994.0,95.0
168.0,1014.0,64.0
183.0,1052.0,79.0
248.0,1010.0,62.0
238.0,977.0,120.0
131.0,986.0,135.0
95.0,978.0,102.0
96.0,969.0,80.0
136.0,1007.0,74.0
155.0,1006.0,74.0
188.0,1028.0,42.0
183.0,1004.0,79.0
167.0,1007.0,63.0
138.0,1019.0,88.0
145.0,981.0,97.0
133.0,983.0,101.0
109.0,987.0,115.0
122.0,984.0,119.0
120.0,1021.0,143.0
119.0,1091.0,53.0
242.0,1027.0,-9.0
218.0,1013.0,0.0
115.0,1035.0,-19.0
84.0,1025.0,-41.0
60.0,1023.0,-44.0
142.0,1020.0,-60.0
200.0,1057.0,-66.0
155.0,1034.0,-63.0
112.0,1039.0,-63.0
89.0,996.0,-95.0
110.0,972.0,-102.0
126.0,984.0,-103.0
119.0,980.0,-97.0
105.0,983.0,-90.0
113.0,974.0,-79.0
100.0,985.0,-74.0
87.0,995.0,-70.0
85.0,997.0,-36.0
95.0,987.0,-19.0
87.0,1007.0,-70.0
105.0,1024.0,-53.0
120.0,1027.0,-67.0
139.0,1030.0,-29.0
112.0,1014.0,-41.0
128.0,993.0,-11.0
122.0,985.0,-16.0
124.0,1014.0,-49.0
133.0,1043.0,-58.0
151.0,1042.0,-79.0
153.0,1040.0,-49.0
140.0,1026.0,-26.0
111.0,1005.0,-46.0
95.0,1006.0,-63.0
96.0,1006.0,-22.0
86.0,997.0,-31.0
74.0,1007.0,-21.0
50.0,1003.0,-38.0
75.0,977.0,-13.0
43.0,978.0,-56.0
53.0,995.0,-31.0
39.0,1017.0,-40.0
34.0,1015.0,-45.0
55.0,1017.0,3.0
22.0,1067.0,-5.0
-4.0,1053.0,17.0
42.0,998.0,56.0
29.0,991.0,47.0
22.0,966.0,61.0
40.0,910.0,60.0
44.0,866.0,80.0
113.0,872.0,81.0
115.0,942.0,102.0
152.0,970.0,75.0
131.0,1029.0,44.0
147.0,1102.0,61.0
123.0,1137.0,63.0
158.0,1149.0,9.0
198.0,1146.0,-14.0
125.0,1091.0,86.0
78.0,986.0,197.0
70.0,972.0,122.0
114.0,977.0,46.0
92.0,983.0,105.0
68.0,993.0,70.0
11.0,1014.0,41.0
71.0,999.0,68.0
40.0,1005.0,81.0
-2.0,1055.0,70.0
-48.0,1050.0,56.0
-12.0,1023.0,118.0
19.0,1025.0,132.0
100.0,1020.0,113.0
111.0,984.0,113.0
45.0,1002.0,117.0
24.0,999.0,47.0
14.0,983.0,71.0
0.0,1026.0,85.0
-13.0,1008.0,99.0
45.0,1023.0,76.0
66.0,1047.0,118.0
84.0,1025.0,87.0
77.0,1043.0,91.0
67.0,1017.0,53.0
58.0,1016.0,63.0
86.0,1004.0,92.0
75.0,1009.0,65.0
90.0,1014.0,57.0
81.0,1022.0,68.0
98.0,1031.0,86.0
109.0,1011.0,87.0
92.0,1018.0,66.0
96.0,1012.0,71.0
96.0,1019.0,48.0
92.0,995.0,80.0
116.0,983.0,68.0
119.0,1001.0,57.0
105.0,1016.0,81.0
106.0,1006.0,62.0
95.0,1006.0,80.0
86.0,997.0,60.0
88.0,1016.0,50.0
106.0,1002.0,43.0
102.0,1000.0,78.0
61.0,1020.0,59.0
42.0,1021.0,65.0
61.0,1015.0,92.0
79.0,1011.0,83.0
72.0,1007.0,84.0
50.0,1023.0,43.0
48.0,1018.0,74.0
84.0,1014.0,49.0
61.0,1009.0,79.0
88.0,1003.0,61.0
64.0,1024.0,91.0
19.0,1006.0,62.0
29.0,1025.0,102.0
10.0,1014.0,83.0
9.0,1007.0,95.0
1.0,1016.0,60.0
28.0,1014.0,164.0
33.0,1016.0,129.0
14.0,1013.0,102.0
2.0,1021.0,126.0
-12.0,1015.0,151.0
19.0,1002.0,149.0
-8.0,1012.0,133.0
-16.0,1017.0,128.0
4.0,1013.0,103.0
43.0,1033.0,120.0
65.0,1025.0,78.0
76.0,1035.0,60.0
38.0,1005.0,80.0
46.0,986.0,65.0
8.0,976.0,115.0
23.0,982.0,111.0
47.0,998.0,128.0
65.0,1011.0,131.0
40.0,1008.0,131.0
19.0,1003.0,117.0
37.0,1038.0,132.0
33.0,1019.0,123.0
12.0,1013.0,123.0
-2.0,985.0,75.0
50.0,1024.0,97.0
66.0,1022.0,83.0
3.0,1005.0,109.0
18.0,1006.0,102.0
38.0,997.0,122.0
49.0,1016.0,92.0
45.0,1016.0,113.0
41.0,1014.0,104.0
43.0,1005.0,139.0
11.0,1004.0,122.0
11.0,1008.0,118.0
15.0,994.0,154.0
37.0,991.0,123.0
10.0,994.0,160.0
49.0,1011.0,30.0
110.0,1006.0,-2.0
86.0,1016.0,78.0
-17.0,990.0,89.0
-7.0,1019.0,117.0
83.0,1053.0,191.0
123.0,1053.0,162.0
53.0,1026.0,141.0
38.0,1030.0,104.0
28.0,993.0,72.0
42.0,979.0,78.0
35.0,977.0,39.0
60.0,1007.0,79.0
38.0,1018.0,136.0
49.0,1024.0,144.0
63.0,999.0,121.0
69.0,1007.0,93.0
59.0,1005.0,116.0
44.0,1004.0,92.0
50.0,1015.0,125.0
31.0,1015.0,133.0
19.0,1017.0,132.0
48.0,998.0,132.0
48.0,1033.0,131.0
58.0,997.0,108.0
43.0,1016.0,94.0
43.0,1008.0,118.0
59.0,1021.0,99.0
56.0,1008.0,85.0
58.0,1022.0,110.0
53.0,995.0,111.0
41.0,1002.0,117.0
38.0,1006.0,125.0
37.0,1003.0,117.0
45.0,1008.0,141.0
49.0,995.0,109.0
55.0,1023.0,109.0
67.0,1007.0,113.0
38.0,1016.0,102.0
59.0,1024.0,98.0
64.0,1001.0,76.0
20.0,1004.0,114.0
35.0,1017.0,120.0
77.0,1004.0,173.0
51.0,1049.0,131.0
34.0,981.0,122.0
5.0,986.0,187.0
42.0,1009.0,196.0
37.0,1009.0,165.0
20.0,1019.0,127.0
25.0,1012.0,143.0
39.0,1033.0,149.0
21.0,1026.0,121.0
28.0,1025.0,142.0
29.0,1016.0,142.0
9.0,997.0,135.0
13.0,1009.0,75.0
41.0,1023.0,140.0
34.0,1000.0,139.0
31.0,1001.0,122.0
23.0,1020.0,126.0
27.0,1004.0,152.0
34.0,1000.0,146.0
6.0,1001.0,143.0
30.0,994.0,140.0
34.0,1001.0,160.0
21.0,1015.0,140.0
12.0,1007.0,153.0
10.0,1015.0,143.0
10.0,1007.0,142.0
10.0,1006.0,132.0
10.0,996.0,152.0
11.0,999.0,132.0
22.0,1016.0,145.0
27.0,1000.0,156.0
-1.0,1003.0,140.0
-4.0,1014.0,130.0
14.0,1000.0,154.0
4.0,991.0,131.0
0.0,989.0,111.0
-4.0,1010.0,133.0
-16.0,1012.0,130.0
21.0,1000.0,126.0
31.0,1025.0,150.0
28.0,1006.0,155.0
37.0,1024.0,123.0
38.0,997.0,112.0
10.0,1016.0,114.0
8.0,995.0,116.0
-11.0,1009.0,99.0
-13.0,1000.0,147.0
-13.0,999.0,141.0
13.0,992.0,131.0
-8.0,1011.0,116.0
18.0,1014.0,133.0
25.0,992.0,116.0
8.0,1025.0,128.0
-12.0,1008.0,115.0
1.0,1008.0,143.0
-11.0,988.0,123.0
17.0,1004.0,141.0
-8.0,997.0,113.0
10.0,1006.0,132.0
18.0,998.0,124.0
10.0,1016.0,151.0
10.0,1003.0,119.0
11.0,1007.0,119.0
9.0,1004.0,120.0
11.0,1006.0,139.0
8.0,1007.0,122.0
16.0,1019.0,131.0
14.0,1005.0,122.0
10.0,1019.0,139.0
7.0,1013.0,119.0
26.0,1003.0,141.0
15.0,1007.0,118.0
8.0,997.0,119.0
28.0,1005.0,132.0
29.0,1016.0,132.0
20.0,1007.0,132.0
28.0,1013.0,132.0
6.0,998.0,133.0
18.0,1019.0,128.0
39.0,1013.0,122.0
21.0,1014.0,102.0
6.0,998.0,121.0
18.0,1000.0,139.0
7.0,1011.0,133.0
5.0,1017.0,116.0
10.0,1009.0,133.0
17.0,1004.0,123.0
19.0,1007.0,114.0
20.0,997.0,143.0
18.0,1006.0,123.0
48.0,1006.0,132.0
18.0,1015.0,122.0
20.0,997.0,133.0
18.0,1007.0,131.0
19.0,1005.0,133.0
23.0,1003.0,149.0
40.0,1014.0,143.0
17.0,1018.0,117.0
14.0,1003.0,124.0
23.0,1001.0,123.0
35.0,999.0,148.0
10.0,1014.0,148.0
33.0,1009.0,126.0
23.0,997.0,127.0
27.0,997.0,153.0
12.0,996.0,133.0
19.0,1016.0,132.0
37.0,996.0,113.0
6.0,999.0,144.0
5.0,1018.0,126.0
15.0,1024.0,113.0
1.0,1010.0,145.0
10.0,1009.0,158.0
15.0,1010.0,136.0
13.0,986.0,129.0
16.0,997.0,147.0
11.0,1007.0,136.0
20.0,1003.0,122.0
-5.0,1014.0,145.0
12.0,1016.0,124.0
21.0,1008.0,130.0
18.0,997.0,141.0
19.0,1016.0,153.0
30.0,1005.0,131.0
26.0,997.0,123.0
24.0,997.0,120.0
34.0,1011.0,113.0
21.0,1022.0,124.0
43.0,998.0,120.0
33.0,1018.0,125.0
24.0,1013.0,118.0
22.0,1011.0,133.0
29.0,1008.0,115.0
0.0,1012.0,134.0
22.0,1008.0,123.0
24.0,999.0,100.0
9.0,986.0,103.0
19.0,1023.0,111.0
10.0,1006.0,122.0
30.0,1007.0,112.0
25.0,1026.0,123.0
-2.0,1035.0,108.0
2.0,1019.0,120.0
15.0,1020.0,110.0
14.0,1018.0,137.0
-1.0,1003.0,137.0
17.0,1005.0,90.0
-6.0,1007.0,124.0
4.0,996.0,122.0
9.0,1016.0,113.0
19.0,1014.0,128.0
-5.0,995.0,117.0
-3.0,1013.0,119.0
18.0,1025.0,114.0
10.0,1025.0,122.0
-6.0,1034.0,140.0
54.0,1025.0,113.0
-22.0,1022.0,147.0
-35.0,1018.0,135.0
-25.0,1002.0,136.0
-24.0,981.0,124.0
-40.0,989.0,158.0
-38.0,958.0,169.0
-32.0,954.0,130.0
-32.0,953.0,128.0
-3.0,1000.0,114.0
7.0,1050.0,121.0
21.0,1082.0,156.0
118.0,1057.0,98.0
64.0,1036.0,128.0
-29.0,1016.0,142.0
-56.0,994.0,131.0
-49.0,970.0,148.0
-40.0,988.0,151.0
22.0,1040.0,88.0
67.0,1116.0,84.0
181.0,1090.0,69.0
151.0,1001.0,108.0
66.0,936.0,117.0
-13.0,969.0,171.0
-40.0,967.0,113.0
30.0,953.0,161.0
11.0,961.0,177.0
19.0,968.0,155.0
2.0,999.0,186.0
26.0,1017.0,108.0
48.0,1016.0,102.0
37.0,1035.0,155.0
16.0,1046.0,187.0
-2.0,1050.0,228.0
-39.0,1036.0,214.0
-5.0,1022.0,173.0
-2.0,977.0,125.0
-30.0,977.0,139.0
-12.0,988.0,109.0
64.0,1015.0,104.0
107.0,1009.0,166.0
38.0,993.0,168.0
-12.0,977.0,218.0
-29.0,984.0,204.0
32.0,1003.0,163.0
56.0,999.0,165.0
57.0,968.0,72.0
55.0,967.0,85.0
2.0,926.0,144.0
-61.0,938.0,121.0
-1.0,1002.0,66.0
89.0,1089.0,81.0
117.0,1145.0,175.0
98.0,1086.0,260.0
30.0,1015.0,231.0
53.0,962.0,144.0
52.0,983.0,128.0
42.0,984.0,126.0
14.0,946.0,179.0
-24.0,991.0,175.0
54.0,1028.0,119.0
112.0,980.0,64.0
50.0,987.0,111.0
-75.0,1010.0,78.0
-15.0,1070.0,162.0
39.0,991.0,341.0
150.0,943.0,258.0
54.0,930.0,249.0
-100.0,960.0,189.0
-105.0,989.0,160.0
44.0,1018.0,127.0
44.0,1052.0,146.0
22.0,1056.0,68.0
-28.0,1012.0,80.0
46.0,960.0,95.0
73.0,930.0,117.0
42.0,959.0,165.0
3.0,1031.0,184.0
37.0,1007.0,143.0
105.0,991.0,111.0
83.0,1063.0,78.0
67.0,1031.0,75.0
66.0,1034.0,126.0
71.0,972.0,164.0
91.0,941.0,129.0
71.0,977.0,144.0
39.0,1049.0,116.0
43.0,1032.0,88.0
63.0,968.0,49.0
86.0,984.0,37.0
32.0,1021.0,86.0
16.0,1017.0,147.0
28.0,1038.0,166.0
21.0,1029.0,249.0
19.0,987.0,185.0
37.0,1016.0,131.0
48.0,1017.0,61.0
133.0,1037.0,44.0
28.0,1031.0,101.0
18.0,1008.0,85.0
44.0,1017.0,133.0
46.0,1045.0,109.0
29.0,1004.0,103.0
48.0,998.0,101.0
72.0,987.0,103.0
57.0,999.0,97.0
76.0,1005.0,82.0
90.0,1020.0,81.0
97.0,1026.0,96.0
78.0,1016.0,140.0
48.0,1006.0,113.0
68.0,1006.0,92.0
84.0,1005.0,105.0
65.0,996.0,122.0
71.0,995.0,124.0
89.0,986.0,112.0
80.0,1005.0,94.0
81.0,1016.0,100.0
88.0,1016.0,115.0
103.0,1013.0,106.0
66.0,1023.0,96.0
82.0,1021.0,100.0
81.0,1035.0,120.0
53.0,1011.0,97.0
75.0,1013.0,108.0
76.0,999.0,104.0
76.0,996.0,92.0
77.0,1016.0,72.0
86.0,1004.0,104.0
87.0,996.0,99.0
80.0,998.0,107.0
71.0,1008.0,109.0
84.0,1001.0,118.0
79.0,1016.0,91.0
82.0,1016.0,80.0
83.0,1007.0,76.0
100.0,1018.0,45.0
81.0,1009.0,89.0
68.0,997.0,89.0
68.0,1003.0,102.0
44.0,1006.0,100.0
19.0,1015.0,122.0
37.0,1025.0,93.0
48.0,1025.0,91.0
70.0,1027.0,61.0
86.0,1041.0,71.0
89.0,1009.0,45.0
91.0,1008.0,42.0
73.0,1000.0,41.0
76.0,997.0,61.0
80.0,993.0,75.0
87.0,1012.0,89.0
86.0,1022.0,87.0
79.0,1007.0,69.0
75.0,998.0,55.0
76.0,1002.0,89.0
76.0,1022.0,67.0
84.0,1026.0,60.0
105.0,1006.0,42.0
96.0,1015.0,32.0
124.0,998.0,26.0
116.0,1017.0,-8.0
131.0,1017.0,23.0
98.0,1019.0,21.0
93.0,974.0,53.0
62.0,1007.0,88.0
44.0,1017.0,144.0
49.0,1007.0,150.0
13.0,1018.0,167.0
41.0,1014.0,167.0
50.0,1015.0,173.0
13.0,1022.0,196.0
16.0,1011.0,166.0
-4.0,970.0,180.0
-67.0,968.0,193.0
11.0,959.0,109.0
32.0,971.0,86.0
65.0,1012.0,92.0
20.0,1031.0,57.0
-8.0,997.0,88.0
11.0,1002.0,23.0
85.0,1002.0,26.0
85.0,1018.0,62.0
70.0,1035.0,82.0
37.0,1004.0,85.0
74.0,1007.0,62.0
50.0,1060.0,87.0
46.0,1015.0,54.0
86.0,966.0,60.0
59.0,1003.0,94.0
39.0,1016.0,80.0
11.0,1015.0,121.0
49.0,998.0,93.0
50.0,1017.0,112.0
94.0,1000.0,87.0
69.0,1000.0,76.0
37.0,1005.0,44.0
52.0,1027.0,58.0
65.0,1028.0,62.0
80.0,1031.0,85.0
65.0,1022.0,86.0
52.0,1022.0,80.0
73.0,1005.0,75.0
62.0,1000.0,75.0
48.0,1007.0,85.0
48.0,1005.0,52.0
66.0,1016.0,61.0
67.0,1016.0,62.0
70.0,1006.0,89.0
94.0,1006.0,64.0
57.0,1021.0,91.0
26.0,1033.0,72.0
34.0,1021.0,111.0
35.0,1009.0,93.0
33.0,1011.0,97.0
63.0,1009.0,104.0
57.0,1015.0,91.0
39.0,1027.0,71.0
37.0,1018.0,72.0
51.0,1007.0,70.0
68.0,1006.0,80.0
57.0,997.0,72.0
75.0,1015.0,80.0
76.0,1025.0,80.0
67.0,1035.0,74.0
66.0,1034.0,74.0
68.0,1033.0,45.0
63.0,1021.0,57.0
58.0,1011.0,67.0
52.0,988.0,96.0
50.0,997.0,76.0
39.0,1026.0,111.0
56.0,1011.0,96.0
59.0,1006.0,98.0
48.0,992.0,44.0
76.0,990.0,77.0
60.0,1015.0,106.0
49.0,1006.0,64.0
48.0,1024.0,70.0
67.0,1015.0,102.0
54.0,1009.0,100.0
39.0,1033.0,79.0
46.0,1000.0,69.0
24.0,1014.0,77.0
37.0,1004.0,94.0
27.0,1008.0,94.0
27.0,1017.0,108.0
38.0,1012.0,109.0
47.0,1026.0,97.0
28.0,1030.0,114.0
35.0,1029.0,88.0
54.0,1023.0,88.0
29.0,1018.0,93.0
46.0,1023.0,101.0
48.0,1026.0,102.0
29.0,1006.0,102.0
40.0,1015.0,102.0
31.0,1008.0,113.0
2.0,1010.0,109.0
19.0,985.0,104.0
12.0,999.0,131.0
35.0,997.0,123.0
37.0,990.0,108.0
21.0,999.0,89.0
57.0,1019.0,86.0
43.0,1018.0,88.0
38.0,1022.0,77.0
45.0,1010.0,84.0
33.0,1035.0,63.0
66.0,1008.0,69.0
40.0,1033.0,91.0
19.0,1024.0,112.0
19.0,1017.0,112.0
19.0,1022.0,99.0
32.0,1005.0,97.0
22.0,1002.0,109.0
29.0,1000.0,90.0
23.0,1021.0,104.0
10.0,1025.0,81.0
44.0,1015.0,91.0
11.0,1003.0,75.0
23.0,1006.0,56.0
36.0,1005.0,69.0
46.0,1012.0,72.0
42.0,1032.0,63.0
19.0,1027.0,69.0
47.0,1007.0,81.0
28.0,1006.0,81.0
11.0,1015.0,103.0
4.0,1008.0,89.0
-14.0,1024.0,101.0
8.0,999.0,119.0
-11.0,998.0,119.0
-1.0,994.0,124.0
-6.0,1001.0,98.0
20.0,1005.0,98.0
9.0,1006.0,96.0
-6.0,1004.0,99.0
24.0,1013.0,94.0
21.0,1009.0,108.0
42.0,1004.0,81.0
34.0,1015.0,109.0
9.0,1007.0,103.0
38.0,1006.0,102.0
9.0,1015.0,93.0
-16.0,1004.0,98.0
-17.0,995.0,71.0
41.0,1003.0,99.0
-4.0,1028.0,99.0
12.0,1003.0,86.0
20.0,1003.0,88.0
40.0,1019.0,110.0
19.0,1004.0,100.0
12.0,988.0,58.0
-7.0,996.0,87.0
17.0,1023.0,88.0
47.0,1017.0,128.0
24.0,1023.0,113.0
-10.0,1017.0,141.0
38.0,1006.0,102.0
-1.0,1016.0,133.0
13.0,1015.0,92.0
6.0,1003.0,67.0
2.0,1027.0,109.0
31.0,1018.0,108.0
41.0,991.0,96.0
-6.0,1020.0,79.0
23.0,1017.0,134.0
31.0,1014.0,116.0
1.0,985.0,115.0
-28.0,1028.0,103.0
-2.0,1021.0,103.0
30.0,1014.0,116.0
4.0,1016.0,110.0
-10.0,1024.0,131.0
19.0,1016.0,142.0
8.0,998.0,152.0
3.0,1016.0,117.0
19.0,1016.0,117.0
22.0,1011.0,115.0
26.0,1012.0,109.0
20.0,1019.0,134.0
9.0,1007.0,114.0
8.0,1009.0,108.0
16.0,995.0,103.0
9.0,1017.0,124.0
-3.0,1006.0,106.0
-13.0,1012.0,114.0
-9.0,1023.0,140.0
-11.0,1018.0,134.0
-10.0,997.0,122.0
-19.0,1006.0,153.0
1.0,1017.0,151.0
-2.0,1010.0,132.0
-10.0,994.0,143.0
-11.0,1021.0,122.0
-6.0,994.0,103.0
-2.0,1004.0,131.0
-9.0,1003.0,125.0
9.0,1009.0,130.0
3.0,996.0,143.0
5.0,1015.0,108.0
13.0,1015.0,114.0
8.0,1009.0,125.0
19.0,1004.0,120.0
10.0,1023.0,132.0
19.0,1025.0,132.0
-19.0,1016.0,142.0
-16.0,1015.0,133.0
8.0,995.0,140.0
6.0,1001.0,107.0
25.0,1015.0,104.0
-2.0,1002.0,115.0
28.0,1011.0,106.0
5.0,1012.0,130.0
14.0,1003.0,128.0
34.0,1007.0,111.0
20.0,998.0,107.0
26.0,996.0,138.0
24.0,1000.0,123.0
9.0,1023.0,157.0
19.0,1008.0,129.0
10.0,1006.0,121.0
19.0,997.0,102.0
11.0,997.0,105.0
17.0,999.0,130.0
0.0,1016.0,113.0
11.0,1017.0,120.0
11.0,1009.0,99.0
5.0,1016.0,121.0
5.0,1029.0,112.0
4.0,1013.0,103.0
11.0,1010.0,126.0
15.0,1011.0,128.0
15.0,1005.0,107.0
14.0,992.0,112.0
9.0,1013.0,143.0
10.0,1016.0,123.0
10.0,1016.0,132.0
10.0,1006.0,102.0
19.0,998.0,121.0
19.0,1017.0,104.0
18.0,1012.0,135.0
8.0,992.0,131.0
15.0,990.0,126.0
15.0,1011.0,114.0
13.0,1018.0,119.0
20.0,1024.0,119.0
23.0,1001.0,132.0
27.0,1001.0,112.0
7.0,1005.0,114.0
27.0,1013.0,110.0
7.0,1009.0,114.0
-2.0,1004.0,110.0
1.0,1016.0,132.0
0.0,997.0,112.0
18.0,997.0,121.0
2.0,998.0,101.0
33.0,1006.0,128.0
24.0,1006.0,108.0
22.0,1001.0,88.0
31.0,999.0,131.0
20.0,1004.0,114.0
-12.0,1016.0,135.0
8.0,1016.0,110.0
15.0,1001.0,115.0
14.0,1014.0,110.0
16.0,1022.0,107.0
6.0,1020.0,114.0
29.0,1005.0,119.0
2.0,1024.0,132.0
0.0,1006.0,132.0
-19.0,1017.0,120.0
-8.0,1015.0,105.0
1.0,1017.0,118.0
15.0,1009.0,91.0
29.0,980.0,122.0
-4.0,999.0,115.0
6.0,1014.0,115.0
28.0,1005.0,104.0
-9.0,1022.0,113.0
8.0,997.0,132.0
22.0,1011.0,163.0
12.0,1007.0,126.0
2.0,1021.0,108.0
-1.0,1009.0,122.0
10.0,1014.0,131.0
19.0,1025.0,132.0
27.0,1017.0,112.0
12.0,1020.0,122.0
26.0,988.0,109.0
11.0,1021.0,100.0
16.0,1009.0,92.0
20.0,1009.0,104.0
36.0,1034.0,81.0
35.0,1021.0,98.0
22.0,1027.0,100.0
16.0,1019.0,79.0
5.0,1000.0,149.0
14.0,1014.0,122.0
12.0,1023.0,111.0
18.0,1010.0,111.0
11.0,1004.0,104.0
19.0,1025.0,71.0
-11.0,987.0,153.0
2.0,1007.0,107.0
10.0,1007.0,116.0
25.0,1028.0,75.0
54.0,1020.0,77.0
14.0,1012.0,111.0
-18.0,1003.0,87.0
6.0,1007.0,101.0
1.0,1002.0,120.0
51.0,1017.0,76.0
42.0,1026.0,81.0
46.0,1030.0,118.0
26.0,1038.0,92.0
10.0,1017.0,102.0
10.0,1016.0,82.0
10.0,1006.0,92.0
11.0,1025.0,113.0
27.0,1016.0,123.0
13.0,1025.0,132.0
28.0,1014.0,114.0
23.0,1028.0,90.0
33.0,1001.0,109.0
3.0,1005.0,105.0
14.0,987.0,90.0
5.0,1001.0,120.0
24.0,1022.0,111.0
24.0,981.0,131.0
16.0,975.0,108.0
34.0,1000.0,117.0
48.0,1000.0,114.0
39.0,995.0,112.0
29.0,1035.0,92.0
39.0,1025.0,113.0
48.0,1037.0,111.0
46.0,1029.0,112.0
23.0,1002.0,111.0
26.0,1010.0,99.0
49.0,1010.0,129.0
13.0,992.0,129.0
22.0,1009.0,116.0
21.0,1034.0,102.0
40.0,1022.0,83.0
59.0,1014.0,130.0
34.0,1010.0,123.0
56.0,996.0,129.0
33.0,1013.0,141.0
28.0,1017.0,143.0
19.0,987.0,132.0
20.0,988.0,131.0
39.0,996.0,123.0
50.0,984.0,130.0
41.0,992.0,125.0
36.0,1004.0,128.0
54.0,997.0,152.0
17.0,1004.0,173.0
21.0,995.0,136.0
-8.0,1016.0,163.0
16.0,1000.0,124.0
66.0,1013.0,110.0
93.0,1029.0,113.0
74.0,1007.0,104.0
64.0,1006.0,101.0
86.0,998.0,94.0
58.0,1006.0,92.0
59.0,1015.0,120.0
98.0,1006.0,83.0
89.0,1017.0,125.0
65.0,1029.0,108.0
35.0,1043.0,132.0
28.0,1028.0,142.0
15.0,1000.0,145.0
-65.0,967.0,158.0
-45.0,966.0,128.0
20.0,951.0,82.0
41.0,986.0,79.0
48.0,1008.0,58.0
82.0,1041.0,67.0
94.0,1035.0,6.0
88.0,1061.0,45.0
57.0,1036.0,92.0
37.0,1034.0,91.0
33.0,1002.0,82.0
53.0,1002.0,104.0
14.0,1027.0,114.0
7.0,1022.0,101.0
8.0,1028.0,64.0
50.0,1010.0,61.0
41.0,1008.0,90.0
35.0,1042.0,84.0
27.0,991.0,44.0
74.0,1008.0,53.0
78.0,1002.0,116.0
35.0,1009.0,90.0
19.0,1025.0,96.0
36.0,1033.0,95.0
48.0,1035.0,52.0
67.0,1016.0,73.0
22.0,1015.0,125.0
-9.0,992.0,131.0
-17.0,978.0,136.0
-37.0,973.0,157.0
-31.0,971.0,145.0
-31.0,995.0,128.0
-1.0,1015.0,118.0
5.0,1027.0,128.0
40.0,1018.0,103.0
41.0,1014.0,131.0
5.0,1017.0,141.0
-7.0,1000.0,168.0
-13.0,1011.0,133.0
10.0,1026.0,109.0
-19.0,997.0,142.0
0.0,1006.0,123.0
-11.0,1004.0,143.0
-37.0,997.0,154.0
-45.0,994.0,115.0
15.0,1005.0,113.0
-21.0,1026.0,151.0
4.0,1028.0,81.0
0.0,1027.0,144.0
-41.0,1012.0,170.0
-66.0,1012.0,165.0
-72.0,1000.0,135.0
-68.0,1005.0,137.0
-36.0,976.0,152.0
-73.0,1004.0,136.0
-35.0,987.0,113.0
-10.0,1024.0,112.0
-30.0,996.0,112.0
-37.0,1010.0,112.0
-15.0,1023.0,115.0
0.0,1016.0,134.0
-32.0,1012.0,114.0
-56.0,1004.0,125.0
-34.0,1005.0,162.0
-59.0,1009.0,156.0
-19.0,1017.0,126.0
-38.0,1009.0,135.0
-52.0,1003.0,131.0
-10.0,1007.0,113.0
26.0,1003.0,117.0
-2.0,1023.0,150.0
-29.0,1000.0,152.0
-19.0,996.0,182.0
-11.0,1005.0,141.0
-49.0,998.0,158.0
-20.0,1017.0,168.0
7.0,1013.0,161.0
-45.0,1019.0,211.0
-38.0,1020.0,173.0
42.0,998.0,133.0
11.0,1000.0,131.0
5.0,1000.0,110.0
36.0,968.0,133.0
-16.0,986.0,134.0
9.0,1004.0,153.0
9.0,1007.0,172.0
-19.0,997.0,190.0
7.0,1014.0,185.0
47.0,1006.0,183.0
47.0,1017.0,162.0
19.0,1022.0,120.0
27.0,997.0,128.0
-22.0,1007.0,168.0
-31.0,1005.0,173.0
-5.0,1004.0,174.0
2.0,1011.0,193.0
0.0,1008.0,196.0
28.0,997.0,155.0
0.0,1006.0,159.0
-9.0,977.0,128.0
37.0,997.0,147.0
19.0,1008.0,183.0
-10.0,997.0,174.0
17.0,997.0,164.0
1.0,997.0,163.0
-10.0,1007.0,162.0
2.0,1014.0,141.0
8.0,998.0,144.0
2.0,1016.0,134.0
8.0,1002.0,117.0
-1.0,1009.0,169.0
-20.0,1017.0,183.0
1.0,1010.0,190.0
18.0,1001.0,208.0
19.0,992.0,160.0
-31.0,1003.0,176.0
69.0,980.0,156.0
-58.0,1034.0,152.0
-21.0,1014.0,176.0
13.0,1012.0,154.0
28.0,1017.0,133.0
-11.0,998.0,113.0
-9.0,1015.0,175.0
4.0,996.0,157.0
14.0,1008.0,145.0
-7.0,1003.0,150.0
8.0,1008.0,142.0
-10.0,1000.0,160.0
-4.0,1005.0,159.0
-19.0,1030.0,144.0
25.0,984.0,120.0
15.0,997.0,137.0
17.0,998.0,135.0
-1.0,1011.0,146.0
-21.0,1015.0,171.0
-9.0,1034.0,200.0
-47.0,1007.0,224.0
-37.0,1016.0,224.0
-12.0,1015.0,232.0
-51.0,1004.0,200.0
-42.0,998.0,193.0
-32.0,991.0,193.0
-69.0,994.0,193.0
-49.0,998.0,194.0
-30.0,990.0,185.0
-13.0,986.0,167.0
-4.0,989.0,192.0
-1.0,1008.0,204.0
35.0,977.0,162.0
77.0,998.0,143.0
14.0,1031.0,141.0
-4.0,1028.0,152.0
37.0,979.0,133.0
28.0,988.0,112.0
-46.0,1015.0,122.0
-80.0,1005.0,141.0
-71.0,1007.0,232.0
-164.0,1017.0,258.0
-68.0,1012.0,191.0
-9.0,1025.0,180.0
-39.0,1027.0,185.0
-35.0,1009.0,154.0
-47.0,1001.0,177.0
-44.0,1013.0,158.0
-69.0,978.0,191.0
-65.0,1009.0,147.0
-18.0,999.0,150.0
18.0,1030.0,221.0
-26.0,1017.0,195.0
-95.0,1016.0,142.0
-70.0,994.0,132.0
-20.0,979.0,149.0
-39.0,987.0,184.0
-28.0,984.0,192.0
-41.0,976.0,248.0
-34.0,997.0,232.0
-23.0,999.0,222.0
-23.0,979.0,203.0
-30.0,976.0,211.0
-37.0,988.0,180.0
-71.0,1000.0,229.0
-71.0,986.0,232.0
-51.0,995.0,230.0
-46.0,997.0,235.0
-57.0,997.0,234.0
-49.0,987.0,204.0
-84.0,996.0,225.0
-33.0,978.0,223.0
-45.0,1000.0,225.0
-57.0,991.0,220.0
-57.0,988.0,197.0
-55.0,981.0,194.0
-38.0,986.0,167.0
-30.0,1016.0,187.0
-53.0,1007.0,221.0
-79.0,1008.0,210.0
-59.0,990.0,211.0
-66.0,987.0,199.0
-51.0,978.0,216.0
-56.0,986.0,185.0
-31.0,978.0,203.0
-29.0,997.0,193.0
-38.0,1005.0,218.0
-40.0,996.0,229.0
-61.0,997.0,206.0
-64.0,996.0,209.0
-55.0,1012.0,195.0
-42.0,990.0,216.0
-43.0,1004.0,192.0
-44.0,994.0,179.0
-45.0,995.0,202.0
-69.0,1006.0,206.0
-57.0,970.0,185.0
-59.0,996.0,214.0
-33.0,988.0,195.0
-36.0,987.0,220.0
-48.0,987.0,206.0
-48.0,987.0,193.0
-69.0,988.0,213.0
-62.0,997.0,193.0
-41.0,998.0,206.0
-71.0,1007.0,203.0
-64.0,1001.0,218.0
-72.0,978.0,190.0
-75.0,986.0,219.0
-52.0,997.0,238.0
-33.0,997.0,218.0
-51.0,985.0,197.0
-59.0,974.0,213.0
-56.0,985.0,227.0
-58.0,987.0,223.0
-48.0,979.0,215.0
-48.0,977.0,223.0
-38.0,997.0,204.0
-47.0,977.0,195.0
-38.0,979.0,214.0
-49.0,977.0,217.0
-49.0,992.0,216.0
-58.0,988.0,179.0
-42.0,967.0,218.0
-58.0,1001.0,197.0
-42.0,994.0,214.0
-57.0,990.0,228.0
-56.0,994.0,206.0
-48.0,970.0,231.0
-26.0,974.0,227.0
-25.0,985.0,208.0
-30.0,996.0,202.0
-55.0,1005.0,214.0
-57.0,1006.0,193.0
-41.0,988.0,215.0
-76.0,1007.0,210.0
-39.0,1004.0,193.0
-21.0,993.0,208.0
-47.0,988.0,212.0
-35.0,997.0,199.0
-29.0,999.0,191.0
-76.0,1003.0,195.0
-56.0,988.0,189.0
-20.0,991.0,213.0
-32.0,1005.0,222.0
-40.0,998.0,203.0
-30.0,989.0,213.0
-44.0,977.0,205.0
-75.0,996.0,194.0
-48.0,997.0,204.0
-49.0,1005.0,222.0
-45.0,997.0,192.0
-42.0,1007.0,191.0
-56.0,1003.0,185.0
-47.0,991.0,210.0
-47.0,974.0,214.0
-54.0,1000.0,209.0
-44.0,995.0,203.0
-29.0,990.0,207.0
-43.0,997.0,222.0
-33.0,1002.0,180.0
-55.0,1000.0,194.0
-56.0,995.0,206.0
-59.0,997.0,220.0
-38.0,1005.0,225.0
-67.0,1006.0,204.0
-38.0,987.0,202.0
-61.0,998.0,185.0
-79.0,995.0,221.0
-81.0,1000.0,229.0
-50.0,1001.0,194.0
-48.0,982.0,205.0
-51.0,987.0,217.0
-55.0,963.0,181.0
-36.0,968.0,226.0
-38.0,987.0,246.0
-99.0,1015.0,239.0
-71.0,992.0,221.0
-59.0,1008.0,251.0
-79.0,1010.0,220.0
-22.0,986.0,193.0
-38.0,997.0,204.0
-56.0,968.0,233.0
-50.0,987.0,216.0
-40.0,988.0,249.0
-29.0,993.0,254.0
-102.0,977.0,250.0
-80.0,985.0,245.0
-92.0,978.0,231.0
-116.0,988.0,212.0
-87.0,989.0,212.0
-64.0,1004.0,228.0
-43.0,1005.0,222.0
-42.0,1000.0,211.0
-66.0,987.0,215.0
-50.0,988.0,205.0
-73.0,978.0,193.0
-86.0,997.0,224.0
-48.0,986.0,254.0
-68.0,987.0,240.0
-68.0,976.0,212.0
-77.0,994.0,217.0
-76.0,987.0,221.0
-70.0,985.0,196.0
-57.0,991.0,221.0
-69.0,993.0,222.0
-39.0,982.0,202.0
-62.0,1001.0,222.0
-80.0,1001.0,199.0
-80.0,980.0,223.0
-96.0,998.0,219.0
-86.0,995.0,271.0
-78.0,998.0,237.0
-57.0,968.0,244.0
-115.0,1008.0,243.0
-87.0,988.0,234.0
-19.0,938.0,206.0
-7.0,983.0,199.0
-40.0,998.0,212.0
11.0,978.0,207.0
4.0,1004.0,207.0
-34.0,1006.0,187.0
-60.0,1029.0,158.0
-43.0,1029.0,128.0
-85.0,1028.0,193.0
-59.0,1040.0,103.0
5.0,1002.0,85.0
42.0,1011.0,85.0
84.0,1026.0,53.0
95.0,997.0,41.0
106.0,996.0,59.0
110.0,986.0,61.0
56.0,987.0,146.0
15.0,1004.0,115.0
26.0,1008.0,127.0
40.0,982.0,118.0
35.0,987.0,126.0
26.0,991.0,111.0
37.0,995.0,107.0
22.0,1007.0,143.0
5.0,1022.0,108.0
15.0,1027.0,92.0
-16.0,1007.0,116.0
5.0,1022.0,91.0
12.0,1008.0,149.0
-10.0,1006.0,142.0
10.0,1004.0,133.0
-12.0,1013.0,130.0
8.0,1035.0,110.0
24.0,986.0,132.0
-24.0,1021.0,152.0
-17.0,997.0,139.0
0.0,1011.0,124.0
12.0,995.0,133.0
38.0,1010.0,132.0
34.0,1004.0,121.0
20.0,999.0,108.0
16.0,1009.0,131.0
-29.0,989.0,195.0
-56.0,1001.0,139.0
-41.0,1025.0,122.0
19.0,1006.0,112.0
9.0,1016.0,154.0
-2.0,1026.0,163.0
-6.0,1019.0,161.0
-14.0,997.0,173.0
-90.0,1022.0,201.0
-76.0,1018.0,165.0
-44.0,981.0,175.0
-49.0,993.0,151.0
-44.0,993.0,170.0
-21.0,973.0,191.0
-19.0,978.0,194.0
-79.0,990.0,198.0
-86.0,1000.0,223.0
-71.0,986.0,222.0
-113.0,1013.0,235.0
-76.0,1025.0,183.0
-87.0,1006.0,215.0
-71.0,1005.0,200.0
-33.0,996.0,168.0
-5.0,997.0,137.0
-39.0,997.0,152.0
-75.0,993.0,199.0
-57.0,987.0,213.0
-88.0,1003.0,217.0
-76.0,996.0,207.0
-85.0,985.0,227.0
-69.0,1017.0,151.0
-34.0,997.0,150.0
-27.0,1021.0,165.0
-46.0,1001.0,179.0
-48.0,996.0,174.0
-67.0,997.0,193.0
-76.0,1024.0,191.0
-53.0,995.0,186.0
-42.0,998.0,187.0
-69.0,997.0,182.0
-49.0,1006.0,197.0
-36.0,991.0,197.0
-45.0,1007.0,213.0
-61.0,1008.0,180.0
-49.0,992.0,192.0
-55.0,1004.0,180.0
-47.0,994.0,176.0
-28.0,976.0,185.0
-31.0,986.0,189.0
-19.0,986.0,180.0
-20.0,988.0,194.0
0.0,978.0,173.0
-39.0,1025.0,213.0
-12.0,993.0,170.0
0.0,989.0,203.0
-49.0,998.0,202.0
-23.0,1005.0,176.0
-14.0,992.0,193.0
1.0,1003.0,179.0
-21.0,999.0,160.0
-31.0,999.0,164.0
-29.0,985.0,172.0
-67.0,1012.0,194.0
-61.0,1016.0,205.0
-15.0,980.0,219.0
-15.0,984.0,217.0
-47.0,1014.0,195.0
-11.0,1016.0,154.0
10.0,986.0,142.0
0.0,1001.0,121.0
27.0,1012.0,155.0
11.0,1000.0,205.0
-32.0,1013.0,173.0
19.0,992.0,163.0
12.0,999.0,158.0
34.0,994.0,124.0
36.0,1001.0,116.0
80.0,1008.0,118.0
52.0,991.0,119.0
57.0,996.0,153.0
47.0,1018.0,135.0
59.0,998.0,132.0
21.0,1006.0,122.0
56.0,987.0,142.0
48.0,997.0,141.0
45.0,998.0,144.0
21.0,1018.0,151.0
35.0,1011.0,142.0
8.0,1007.0,160.0
17.0,1016.0,177.0
-2.0,994.0,183.0
16.0,994.0,160.0
7.0,1008.0,159.0
36.0,1003.0,158.0
-9.0,1013.0,152.0
-6.0,1010.0,152.0
0.0,989.0,168.0
17.0,1002.0,167.0
-7.0,1007.0,161.0
9.0,987.0,193.0
9.0,1016.0,162.0
12.0,1003.0,152.0
4.0,1001.0,160.0
-17.0,1012.0,193.0
6.0,994.0,168.0
27.0,997.0,172.0
17.0,1014.0,144.0
-1.0,999.0,171.0
-10.0,999.0,178.0
-11.0,1010.0,173.0
5.0,983.0,175.0
-3.0,995.0,204.0
3.0,997.0,165.0
-10.0,996.0,149.0
-9.0,1005.0,173.0
-11.0,1016.0,163.0
28.0,1014.0,163.0
-12.0,988.0,163.0
3.0,1018.0,151.0
-19.0,1013.0,159.0
-22.0,1016.0,169.0
8.0,995.0,151.0
23.0,989.0,151.0
5.0,998.0,163.0
-13.0,995.0,172.0
1.0,992.0,183.0
13.0,976.0,160.0
-30.0,996.0,171.0
-1.0,1017.0,194.0
-42.0,999.0,201.0
-23.0,997.0,214.0
-28.0,997.0,194.0
-29.0,1006.0,153.0
-29.0,1006.0,188.0
-5.0,1017.0,200.0
-6.0,996.0,184.0
-31.0,982.0,191.0
-10.0,1009.0,165.0
-22.0,988.0,174.0
-41.0,1011.0,221.0
-26.0,999.0,188.0
-3.0,993.0,208.0
-56.0,1011.0,184.0
-24.0,995.0,188.0
-44.0,1005.0,169.0
-8.0,990.0,179.0
-24.0,985.0,173.0
-30.0,1006.0,222.0
-20.0,997.0,203.0
-28.0,995.0,182.0
-31.0,989.0,158.0
-35.0,1006.0,142.0
-15.0,1009.0,176.0
-7.0,1008.0,183.0
3.0,982.0,146.0
17.0,987.0,161.0
13.0,990.0,158.0
13.0,993.0,150.0
-10.0,986.0,163.0
-26.0,1016.0,147.0
-39.0,1005.0,149.0
-5.0,1023.0,139.0
1.0,1016.0,102.0
10.0,1035.0,131.0
0.0,1006.0,122.0
-2.0,1016.0,135.0
-44.0,1006.0,168.0
-54.0,1014.0,213.0
-34.0,991.0,202.0
-66.0,984.0,206.0
-77.0,995.0,186.0
-53.0,1001.0,147.0
-62.0,995.0,207.0
-113.0,963.0,179.0
-124.0,983.0,154.0
-77.0,992.0,197.0
-90.0,998.0,183.0
-98.0,1016.0,162.0
-28.0,1015.0,155.0
11.0,1007.0,123.0
-68.0,987.0,133.0
-74.0,997.0,164.0
-53.0,986.0,160.0
-26.0,1002.0,154.0
-16.0,1001.0,150.0
-28.0,1016.0,162.0
-37.0,1015.0,164.0
-72.0,1017.0,134.0
-66.0,1032.0,131.0
-46.0,1023.0,131.0
12.0,1027.0,105.0
39.0,1049.0,159.0
13.0,990.0,174.0
-22.0,990.0,176.0
-23.0,998.0,126.0
36.0,1005.0,131.0
56.0,1016.0,122.0
-3.0,1004.0,141.0
-21.0,998.0,151.0
-29.0,1005.0,223.0
-48.0,992.0,239.0
-66.0,968.0,251.0
-80.0,961.0,230.0
-81.0,964.0,234.0
-55.0,961.0,240.0
-75.0,976.0,229.0
-40.0,1002.0,221.0
-50.0,1008.0,279.0
-117.0,1029.0,239.0
48.0,988.0,214.0
60.0,1022.0,143.0
-82.0,970.0,221.0
-64.0,979.0,182.0
10.0,975.0,195.0
-10.0,973.0,193.0
-3.0,998.0,219.0
-48.0,1011.0,210.0
-42.0,1004.0,239.0
-62.0,972.0,243.0
-63.0,980.0,204.0
0.0,1001.0,228.0
14.0,1019.0,206.0
52.0,996.0,209.0
-36.0,952.0,216.0
-40.0,1001.0,299.0
-34.0,951.0,140.0
-23.0,961.0,202.0
0.0,970.0,167.0
-49.0,961.0,174.0
-23.0,1067.0,218.0
124.0,1067.0,280.0
-18.0,1027.0,252.0
-80.0,1000.0,224.0
-56.0,980.0,222.0
-69.0,997.0,247.0
-39.0,974.0,247.0
-14.0,973.0,276.0
-21.0,968.0,223.0
7.0,955.0,207.0
-29.0,1007.0,210.0
10.0,970.0,179.0
-17.0,946.0,193.0
-33.0,983.0,202.0
-10.0,987.0,223.0
-19.0,1026.0,254.0
-42.0,1049.0,230.0
-48.0,979.0,191.0
27.0,972.0,164.0
-4.0,989.0,133.0
3.0,1000.0,197.0
15.0,1001.0,224.0
19.0,976.0,233.0
13.0,993.0,236.0
-47.0,999.0,186.0
-27.0,978.0,209.0
-14.0,1011.0,223.0
8.0,1002.0,207.0
-20.0,994.0,250.0
-33.0,1005.0,220.0
18.0,1006.0,212.0
-20.0,1016.0,243.0
-17.0,1014.0,214.0
-28.0,995.0,223.0
-65.0,985.0,199.0
-47.0,990.0,214.0
-42.0,994.0,251.0
-29.0,1001.0,230.0
-21.0,976.0,212.0
-37.0,972.0,220.0
-28.0,1006.0,253.0
-15.0,983.0,226.0
-41.0,998.0,224.0
-36.0,980.0,231.0
-39.0,992.0,212.0
-30.0,998.0,233.0
-20.0,987.0,225.0
0.0,978.0,214.0
-22.0,989.0,214.0
-47.0,1006.0,213.0
-24.0,994.0,218.0
-22.0,1001.0,235.0
-27.0,999.0,234.0
-16.0,985.0,212.0
-30.0,984.0,216.0
-56.0,995.0,232.0
-29.0,978.0,226.0
-52.0,980.0,228.0
-26.0,1010.0,192.0
-17.0,988.0,210.0
-57.0,995.0,221.0
-16.0,989.0,235.0
-17.0,978.0,205.0
-56.0,997.0,234.0
11.0,997.0,222.0
-28.0,1006.0,229.0
-42.0,992.0,224.0
-35.0,992.0,211.0
-44.0,1004.0,211.0
-30.0,998.0,191.0
-37.0,1001.0,235.0
-27.0,979.0,235.0
-25.0,999.0,213.0
-20.0,979.0,191.0
-46.0,1004.0,218.0
-35.0,1006.0,208.0
-19.0,984.0,235.0
-35.0,1005.0,214.0
-48.0,988.0,234.0
-38.0,997.0,204.0
-37.0,986.0,233.0
-30.0,989.0,202.0
-25.0,995.0,214.0
-27.0,985.0,186.0
-45.0,986.0,204.0
-29.0,989.0,213.0
-37.0,999.0,219.0
-31.0,990.0,223.0
-37.0,986.0,231.0
-28.0,985.0,222.0
-52.0,993.0,217.0
-30.0,991.0,228.0
-39.0,977.0,220.0
-20.0,995.0,244.0
-47.0,997.0,215.0
-29.0,987.0,234.0
-28.0,988.0,213.0
-10.0,1007.0,226.0
-46.0,1004.0,221.0
-38.0,993.0,229.0
-42.0,987.0,226.0
-59.0,997.0,200.0
-17.0,979.0,228.0
-29.0,1002.0,227.0
-38.0,987.0,231.0
-10.0,987.0,222.0
-38.0,998.0,221.0
-30.0,997.0,255.0
-28.0,987.0,228.0
-75.0,1004.0,232.0
-49.0,988.0,225.0
-57.0,987.0,214.0
-27.0,977.0,233.0
-9.0,989.0,198.0
0.0,996.0,189.0
-42.0,997.0,212.0
-17.0,976.0,192.0
-43.0,975.0,249.0
-69.0,982.0,246.0
-25.0,986.0,200.0
-29.0,993.0,221.0
-11.0,985.0,235.0
-45.0,980.0,196.0
-25.0,989.0,222.0
-55.0,1000.0,239.0
-32.0,986.0,214.0
-37.0,1005.0,224.0
-38.0,987.0,224.0
-38.0,987.0,222.0
-51.0,988.0,219.0
-52.0,996.0,239.0
-42.0,986.0,217.0
-54.0,1001.0,247.0
-37.0,989.0,231.0
-49.0,992.0,230.0
-32.0,994.0,228.0
-48.0,1004.0,225.0
-35.0,987.0,214.0
-33.0,986.0,237.0
-40.0,1002.0,211.0
-36.0,978.0,202.0
-48.0,995.0,213.0
-38.0,980.0,223.0
-38.0,978.0,224.0
-29.0,1005.0,204.0
-27.0,986.0,213.0
-22.0,999.0,192.0
-39.0,992.0,226.0
-26.0,987.0,221.0
-33.0,982.0,193.0
-40.0,980.0,225.0
-28.0,984.0,218.0
-24.0,977.0,241.0
-56.0,1002.0,220.0
-49.0,1002.0,198.0
-56.0,1016.0,213.0
-50.0,991.0,228.0
-40.0,994.0,237.0
-20.0,997.0,195.0
-10.0,978.0,193.0
-3.0,960.0,195.0
-46.0,987.0,214.0
-20.0,976.0,232.0
-51.0,977.0,244.0
-34.0,981.0,201.0
-57.0,979.0,234.0
-54.0,974.0,236.0
-61.0,1008.0,237.0
-41.0,993.0,195.0
-25.0,984.0,241.0
-33.0,994.0,237.0
-25.0,1002.0,219.0
-47.0,1008.0,227.0
-31.0,996.0,206.0
-29.0,998.0,213.0
-10.0,968.0,234.0
-38.0,1006.0,224.0
-30.0,985.0,234.0
-62.0,1002.0,220.0
